Folder: cellulose_origami/tensile_tests

Note: README.md
# This is the supporting Github for "Renewable Self-Folding Origami Constructed from Bioengineered Bacterial Cellulose"
by Yitong Tseo∗, Morgan Guempel∗, Cathy Hogan, and Ian Hunter, where * denotes equal contribution

All data used in the paper and all code analyzing the data and generating figures are included in this Github.
For any questions please reach out to yitongt@mit.edu

File: 04.03.25_BL_Force_Paper1.csv
,Time,Force (Newtons),Distance (millimeters)
0,2,-0.000248634,0.0
25,331,-0.000516355,0.0
50,684,-3.09263e-05,0.0
75,1031,0.000556492,0.0
100,1478,0.00036232,0.0
125,1824,0.00148714,0.0
150,2175,0.00137829,0.0
175,2526,0.00110468,0.0
200,2874,0.00185783,0.0
225,3230,0.00216576,0.0
250,3577,0.0026002,0.0
275,3922,0.00266786,0.0
300,4262,0.00294245,0.0
325,4614,0.00279927,0.0
350,4978,0.00252567,0.0
375,5311,0.00266786,0.0
400,5655,0.00233738,0.0
425,5986,0.00238249,0.0
450,6314,0.00257176,0.0
475,6642,0.00229717,0.0
500,6997,0.00277083,0.0
525,7358,0.00234326,0.0
550,7715,0.00245702,0.0
575,8061,0.00240014,0.0
600,8414,0.00305621,0.0
625,8798,0.00236582,0.0
650,9152,0.00289047,0.0
675,9506,0.0026051,0.0
700,9876,0.00262275,0.0
725,10245,0.00233738,0.0
750,10606,0.00265708,0.0
775,10975,0.00255999,0.0
800,11327,0.00272572,0.0
825,11690,0.00238837,0.0
850,12060,0.00214909,0.0
875,12417,0.00250802,0.0
900,12780,0.00237759,0.0
925,13136,0.00176075,0.0
950,13497,0.00198924,0.0
975,13866,0.00139594,0.0
1000,14226,0.00181763,0.0
1025,14583,0.00133318,0.0
1050,14951,0.00148126,0.0
1075,15317,0.00119,0.0
1100,15686,0.00112136,0.0
1125,16040,0.00156069,0.0
1150,16407,0.00151558,0.0
1175,16776,0.00177252,0.0
1200,17146,0.00154402,0.0
1225,17513,0.00149793,0.0
1250,17871,0.00133808,0.0
1275,18245,0.00212654,0.0
1300,18619,0.00187451,0.0
1325,18987,0.00162346,0.0
1350,19357,0.00156069,0.0
1375,19721,0.00180684,0.0
1400,20091,0.00171564,0.0
1425,20456,0.00180096,0.0
1450,20819,0.00166955,0.0
1475,21194,0.00156069,0.0
1500,21549,0.00193825,0.0
1525,21912,0.0017784,0.0
1550,22282,0.0016009,0.0
1575,22646,0.00188039,0.0
1600,23009,0.00169799,0.0
1625,23371,0.00195492,0.0
1650,23731,0.00229129,0.0
1675,24105,0.00291989,0.0
1700,24468,0.00341611,0.0
1725,24832,0.00334746,0.0
1750,25197,0.00331314,0.0
1775,25569,0.00361617,0.0
1800,25936,0.00337002,0.0
1825,26288,0.00346711,0.0
1850,26653,0.00355831,0.0
1875,27028,0.00399765,0.0
1900,27397,0.00349064,0.0
1925,27755,0.00448896,0.0
1950,28115,0.00447229,0.0
1975,28484,0.00456349,0.0
2000,28859,0.00514502,0.0
2025,29220,0.00508815,0.0
2050,29592,0.00541373,0.0
2075,29952,0.00538529,0.0
2100,30314,0.00595015,0.0
2125,30682,0.0054706,0.0
2150,31055,0.0059727,0.0
2175,31426,0.00608156,0.0
2200,31807,0.00645813,0.0
2225,32185,0.00626396,0.0
2250,32555,0.00589916,0.0
2275,32921,0.00616688,0.0
2300,33280,0.0063434,0.0
2325,33642,0.00645813,0.0
2350,33999,0.00578442,0.0
2375,34355,0.00606391,0.0
2400,34726,0.00595603,0.0
2425,35095,0.00650324,0.0
2450,35459,0.00645225,0.0
2475,35830,0.00653757,0.0
2500,36194,0.00680627,0.0
2525,36545,0.00626985,0.0
2550,36912,0.00658366,0.0
2575,37280,0.00671507,0.0
2600,37650,0.00682883,0.0
2625,38014,0.00662387,0.0
2650,38391,0.00674351,0.0
2675,38759,0.0065209,0.0
2700,39124,0.00690924,0.0
2725,39487,0.00681804,0.0
2750,39859,0.00633849,0.0
2775,40223,0.00626985,0.0
2800,40590,0.00659543,0.0
2825,40956,0.00645813,0.0
2850,41310,0.0062012,0.0
2875,41664,0.00657189,0.0
2900,42027,0.00644637,0.0
2925,42397,0.00701123,0.0
2950,42757,0.00698867,0.0
2975,43115,0.0073878,0.0
3000,43484,0.00784479,0.0
3025,43852,0.0072966,0.0
3050,44225,0.00755942,0.0
3075,44588,0.00760551,0.0
3100,44957,0.00795365,0.0
3125,45433,0.00802131,0.0
3150,45810,0.00848419,0.0
3175,46178,0.00794188,0.0
3200,46546,0.00789089,0.0
3225,46925,0.00773104,0.0
3250,47290,0.0075251,0.0
3275,47659,0.007936,0.0
3300,48027,0.00754765,0.0
3325,48392,0.0072966,0.0
3350,48761,0.00761042,0.0
3375,49128,0.00757119,0.0
3400,49496,0.0075653,0.0
3425,49863,0.00765062,0.0
3450,50233,0.00733681,0.0
3475,50585,0.00751431,0.0
3500,50922,0.00751921,0.0
3525,51258,0.00795365,0.0
3550,51613,0.00774182,0.0
3575,51966,0.00781047,0.0
3600,52329,0.00793011,0.0
3625,52697,0.00793011,0.0
3650,53055,0.0082959,0.0
3675,53421,0.00798797,0.0
3700,53788,0.00885488,0.0
3725,54160,0.00839887,0.0
3750,54524,0.00837533,0.0
3775,54887,0.00862638,0.0
3800,55249,0.00897452,0.0
3825,55610,0.00899806,0.0
3850,55984,0.00953448,0.0
3875,56355,0.00943151,0.0
3900,56711,0.00969433,0.0
3925,57074,0.0100248,0.0
3950,57455,0.0100248,0.0
3975,57825,0.00980809,0.0
4000,58193,0.0100366,0.0
4025,58551,0.0101445,0.0
4050,58920,0.00988262,0.0
4075,59290,0.0101052,0.0
4100,59664,0.0101052,0.0
4125,60026,0.010014,0.0
4150,60383,0.0101905,0.0
4175,60743,0.00967668,0.0
4200,61112,0.00999049,0.0
4225,61485,0.0101503,0.0
4250,61856,0.0100533,0.0
4275,62224,0.010116,0.0
4300,62564,0.00980809,0.0
4325,62914,0.00977376,0.0
4350,63269,0.0100591,0.0
4375,63629,0.0100993,0.0
4400,63986,0.00999637,0.0
4425,64349,0.00987085,0.0
4450,64730,0.0104416,0.0
4475,65103,0.00976298,0.0
4500,65465,0.0100023,0.0
4525,65835,0.0101052,0.0
4550,66202,0.0100425,0.0
4575,66566,0.00968256,0.0
4600,66926,0.00961391,0.0
4625,67292,0.00973944,0.0
4650,67664,0.00937463,0.0
4675,68035,0.010065,0.0
4700,68395,0.00994538,0.0
4725,68785,0.00947172,0.0
4750,69145,0.00956292,0.0
4775,69512,0.00977376,0.0
4800,69875,0.00995126,0.0
4825,70251,0.0100768,0.0
4850,70625,0.0100533,0.0
4875,70987,0.00938052,0.0
4900,71352,0.00933442,0.0
4925,71725,0.00941974,0.0
4950,72091,0.00907161,0.0
4975,72460,0.00975709,0.0
5000,72831,0.0095286,0.0
5025,73184,0.00916869,0.0
5050,73544,0.00931187,0.0
5075,73909,0.00979632,0.0
5100,74274,0.00916869,0.0
5125,74643,0.0095688,0.0
5150,75007,0.00916281,0.0
5175,75378,0.00941974,0.0
5200,75747,0.00919223,0.0
5225,76107,0.00927755,0.0
5250,76465,0.00975121,0.0
5275,76824,0.00964824,0.0
5300,77193,0.00939719,0.0
5325,77554,0.00972865,0.0
5350,77916,0.0094825,0.0
5375,78283,0.00962568,0.0
5400,78655,0.00910593,0.0
5425,79026,0.00932266,0.0
5450,79385,0.00922557,0.0
5475,79759,0.00871857,0.0
5500,80127,0.00934619,0.0
5525,80489,0.00941484,0.0
5550,80846,0.00944818,0.0
5575,81218,0.00977965,0.0
5600,81578,0.00934619,0.0
5625,81955,0.00888332,0.0
5650,82315,0.00903238,0.0
5675,82683,0.00875779,0.0
5700,83048,0.00876368,0.0
5725,83404,0.0091177,0.0
5750,83765,0.00925989,0.0
5775,84132,0.00886665,0.0
5800,84500,0.0093913,0.0
5825,84878,0.00916869,0.0
5850,85262,0.00900394,0.0
5875,85625,0.00928343,0.0
5900,85997,0.00867248,0.0
5925,86365,0.00943151,0.0
5950,86729,0.00898629,0.0
5975,87082,0.00897452,0.0
6000,87464,0.00932266,9.765625e-05
6025,88465,0.0100425,0.0230469
6050,89414,0.0117478,0.084668
6075,90303,0.0161648,0.171191
6100,91292,0.0558317,0.270117
6125,92199,0.163438,0.360742
6150,93112,0.290763,0.452051
6175,94201,0.478032,0.5609375
6200,95111,0.629248,0.651953
6225,96018,0.795401,0.742676
6250,97021,0.962426,0.842969
6275,97947,1.09021,0.935547
6300,98856,1.20255,1.02646
6325,99872,1.27994,1.12803
6350,100928,1.34595,1.23359
6375,101938,1.34725,1.33467
6400,102949,1.40693,1.43564
6425,103897,1.32366,1.53047
6450,104825,1.28514,1.62334
6475,105757,0.927057,1.7165
6500,106693,0.786606,1.81006
6525,107628,0.766881,1.90352
6550,108556,0.633392,1.99639
6575,109599,0.487689,2.10068
6600,110547,0.441049,2.19551
6625,111608,0.276512,2.30156
6650,112548,0.169499,2.39561
6675,113488,0.133502,2.48955
6700,114570,0.0641183,2.59775
6725,115523,0.0819027,2.69316
6750,116484,0.0546323,2.78916
6775,117562,0.0341609,2.89697
6800,118600,0.0259243,3.00078
6825,119656,0.0266441,3.10645
6850,120708,0.0200747,3.21152
6875,121676,0.0172386,3.3084
6900,122649,0.0157146,3.40566
6925,123727,0.0160343,3.51348
6950,124707,0.0147497,3.61143
6975,125766,0.0132943,3.71738
7000,126762,0.0132316,3.81699
7025,127764,0.0128207,3.91719
7050,128992,0.0119244,4.03994
7075,129964,0.011183,4.13711
7100,130994,0.0103043,4.24014
7125,132111,0.00898629,4.35186
7150,133122,0.00882644,4.45293
7175,134138,0.00827334,4.55449
7200,135248,0.00743978,4.66553
7225,136266,0.00722894,4.76738
7250,137400,0.00635516,4.88076
7275,138470,0.00501361,4.9877
7281,138717,0.00483709,5.0

File: 04.03.25_BslA.csv
,Time,Force (Newtons),Distance (millimeters)
0,8,0.000589379,0.0
9,137,0.000876714,0.0
18,266,0.00108658,0.0
27,397,0.00128467,0.0
36,531,0.00114149,0.0
45,659,0.00103068,0.0
54,801,0.000926727,0.0
63,936,0.000854158,0.0
72,1075,0.000540345,0.0
81,1210,0.000291257,0.0
90,1336,0.000186325,0.0
99,1467,0.000208881,0.0
108,1591,0.000114737,0.0
117,1717,-2.25563e-05,0.0
126,1843,-0.000320678,0.0
135,2052,-0.000265761,0.0
144,2171,-0.00016083,0.0
153,2297,-0.000194173,0.0
162,2421,-0.000315775,0.0
171,2546,-0.000420706,0.0
180,2667,-0.000497198,0.0
189,2785,-0.000767862,0.0
198,2912,-0.000889464,0.0
207,3039,-0.000966937,0.0
216,3174,-0.0010601,0.0
225,3302,-0.0010601,0.0
234,3426,-0.00106598,0.0
243,3559,-0.00102185,0.0
252,3685,-0.00111011,0.0
261,3811,-0.00121504,0.0
270,3931,-0.00122093,0.0
279,4050,-0.0012425,0.0
288,4178,-0.00130919,0.0
297,4314,-0.00142981,0.0
306,4448,-0.00147394,0.0
315,4581,-0.00140824,0.0
324,4714,-0.0015573,0.0
333,4848,-0.00160143,0.0
342,4986,-0.00165144,0.0
351,5121,-0.00167302,0.0
360,5258,-0.00178873,0.0
369,5392,-0.00188288,0.0
378,5534,-0.00197702,0.0
387,5669,-0.00204861,0.0
396,5798,-0.00207018,0.0
405,5934,-0.00196035,0.0
414,6070,-0.00188876,0.0
423,6206,-0.00177795,0.0
432,6344,-0.0017397,0.0
441,6481,-0.00171715,0.0
450,6616,-0.0017446,0.0
459,6745,-0.00182208,0.0
468,6879,-0.00187699,0.0
477,7018,-0.00186032,0.0
486,7148,-0.00184954,0.0
495,7286,-0.00182796,0.0
504,7506,-0.00171126,0.0005859375
513,7687,-0.00097184,0.00253906
522,7875,0.00163673,0.00605469
531,8051,0.00856317,0.0108398
540,8268,0.022162,0.0183594
549,8451,0.0429727,0.0264648
558,8638,0.0702254,0.0360352
567,8825,0.102819,0.047168
576,9013,0.146815,0.0600586
585,9204,0.201434,0.0745117
594,9390,0.27016,0.0901367
603,9578,0.361293,0.10752
612,9767,0.480372,0.12627
621,10000,0.63635,0.149609
630,10167,0.824492,0.166309
639,10352,1.03196,0.184766
648,10538,1.25728,0.203418
657,10782,1.6127,0.227734
666,10967,1.81041,0.246289
675,11160,1.88113,0.265527
684,11355,1.92243,0.285059
693,11614,2.01114,0.3109375
702,11802,2.14704,0.329785
711,11995,2.35712,0.349121
720,12188,2.57013,0.368359
729,12385,2.76507,0.387988
738,12629,3.04531,0.412402
747,12817,3.21346,0.43125
756,13006,3.38141,0.450098
765,13204,3.55477,0.469922
774,13447,3.7988,0.494141
783,13639,3.96046,0.513477
792,13833,4.10887,0.5328125
801,14023,4.25159,0.551758
810,14217,4.39411,0.571191
819,14469,4.52333,0.596387
828,14664,4.6439,0.615918
837,14868,4.82159,0.636328
846,15091,4.93216,0.658691
855,15347,5.09132,0.684277
864,15540,5.1975,0.703516
873,15749,5.31002,0.724414
882,15947,5.40584,0.744141
891,16161,5.48422,0.765625
900,16449,5.60592,0.794336
909,16653,5.69004,0.814844
918,16858,5.76321,0.835254
927,17056,5.8304,0.855176
936,17301,5.91929,0.87959
945,17503,6.0164,0.899805
954,17713,6.09205,0.920801
963,17916,6.17332,0.941113
972,18165,6.2493,0.966016
981,18371,6.3241,0.986621
990,18575,6.39991,1.00703
999,18789,6.5053,1.02842
1008,19000,6.56424,1.04941
1017,19260,6.64514,1.07549
1026,19464,6.70116,1.0959
1035,19672,6.75274,1.1167
1044,19877,6.79054,1.13721
1053,20134,6.83798,1.16289
1062,20340,6.83079,1.1835
1071,20555,6.70169,1.20508
1080,20769,5.91531,1.22646
1089,20975,5.03787,1.24707
1098,21242,3.84466,1.27373
1107,21445,2.86169,1.29404
1116,21660,1.97746,1.31543
1125,21869,1.62523,1.33643
1134,22130,0.85915,1.3625
1143,22336,0.460532,1.38301
1152,22541,0.379973,1.40361
1161,22791,0.325724,1.42861
1170,23002,0.301127,1.44971
1179,23272,0.267373,1.47666
1188,23484,0.244614,1.49785
1197,23700,0.223383,1.51943
1206,23907,0.20117,1.54014
1215,24173,0.190645,1.5668
1224,24384,0.177373,1.58789
1233,24598,0.169398,1.60928
1242,24813,0.162295,1.63076
1251,25030,0.155104,1.65244
1260,25292,0.144906,1.67871
1269,25502,0.140204,1.69971
1278,25716,0.134138,1.72109
1287,25931,0.130011,1.74258
1296,26200,0.124519,1.76943
1305,26419,0.120971,1.79131
1314,26641,0.117019,1.81357
1323,26860,0.111511,1.83555
1332,27086,0.109348,1.85801
1341,27366,0.106633,1.88604
1350,27584,0.104221,1.90791
1359,27806,0.101241,1.93008
1368,28026,0.0966102,1.95205
1377,28302,0.093172,1.97969
1386,28523,0.0908655,2.00176
1395,28834,0.0868036,2.03281
1404,29051,0.0818698,2.05449
1413,29275,0.0789671,2.07695
1422,29555,0.0745737,2.10488
1431,29779,0.071158,2.12734
1440,30001,0.0670079,2.14951
1449,30222,0.0647337,2.17158
1458,30494,0.0608434,2.19893
1467,30756,0.0581279,2.2251
1476,30987,0.0542533,2.24814
1485,31220,0.049855,2.27139
1494,31488,0.0431218,2.29824
1503,31717,0.0381273,2.32109
1512,31942,0.0358374,2.34365
1521,32169,0.0336407,2.36631
1530,32400,0.0300927,2.38945
1539,32674,0.0260357,2.41689
1548,32903,0.0234477,2.43975
1557,33131,0.021201,2.4625
1566,33359,0.0185748,2.48535
1575,33643,0.0159858,2.51377
1584,33877,0.0141314,2.53711
1593,34104,0.0120288,2.55977
1602,34329,0.010804,2.58232
1611,34558,0.00982136,2.60527
1620,34851,0.00824837,2.63447
1629,35078,0.00685779,2.65723
1638,35310,0.00573199,2.68047
1647,35534,0.00431983,2.70283
1656,35847,0.00278509,2.73408
1665,36099,0.00169263,2.75928
1674,36327,0.00140039,2.78213
1683,36554,0.000843371,2.80479
1692,36852,-0.000525637,2.83457
1701,37090,-0.00109344,2.8583
1710,37336,-0.0017446,2.88311
1719,37574,-0.00219179,2.90684
1728,37813,-0.00260563,2.93066
1737,38102,-0.0033676,2.95957
1746,38337,-0.00399131,2.98311
1755,38582,-0.00502297,3.00752
1764,38817,-0.00548682,3.03115
1773,39149,-0.00570159,3.06426
1782,39395,-0.00591145,3.08896
1791,39630,-0.0060713,3.1124
1800,39866,-0.00603894,3.13594
1809,40147,-0.00683327,3.16406
1818,40383,-0.00770509,3.1877
1827,40624,-0.0077551,3.21182
1836,40872,-0.00760604,3.23652
1845,41121,-0.00753445,3.26152
1854,41404,-0.00755602,3.28975
1863,41647,-0.00728046,3.31406
1872,41891,-0.00730203,3.33848
1881,42136,-0.00745698,3.36299
1890,42435,-0.00743442,3.39287
1899,42679,-0.00736283,3.41729
1908,42925,-0.00753445,3.44189
1917,43173,-0.00741285,3.4667
1926,43412,-0.0073187,3.49053
1935,43712,-0.00742952,3.52061
1944,43957,-0.00737951,3.54502
1953,44208,-0.00699312,3.57021
1962,44495,-0.00705392,3.59883
1971,44836,-0.0071922,3.63291
1980,45080,-0.00678326,3.65732
1989,45331,-0.006695,3.68242
1998,45569,-0.0066342,3.70625
2007,45823,-0.00662341,3.73164
2016,46116,-0.00694311,3.76094
2025,46343,-0.00694899,3.78369
2034,46557,-0.00692742,3.80508
2043,46769,-0.00704804,3.82627
2052,46995,-0.00697155,3.84893
2061,47238,-0.0070706,3.87314
2070,47469,-0.00697645,3.89629
2079,47712,-0.00673913,3.92051
2088,47941,-0.00691565,3.94346
2097,48288,-0.00680582,3.97813
2106,48539,-0.0068166,4.00322
2115,48788,-0.00662341,4.028125
2124,49033,-0.00656261,4.05254
2133,49283,-0.00643022,4.07764
2142,49528,-0.00650181,4.10215
2151,49772,-0.00649102,4.12656
2160,50015,-0.00638021,4.15088
2169,50258,-0.00633608,4.1751
2178,50498,-0.00614289,4.19912
2187,50824,-0.00603894,4.23164
2196,51120,-0.00616544,4.26143
2205,51372,-0.00596637,4.28652
2214,51620,-0.00609385,4.31143
2223,51873,-0.00604972,4.33652
2232,52179,-0.0060105,4.36729
2241,52505,-0.00590066,4.3999
2250,52754,-0.00592224,4.42471
2259,52998,-0.00576827,4.44912
2268,53257,-0.00580652,4.475
2277,53505,-0.00583986,4.4998
2286,53758,-0.00568492,4.5251
2295,54013,-0.00559175,4.55059
2304,54272,-0.00574081,4.57646
2313,54536,-0.00568001,4.60293
2322,54789,-0.0055692,4.62822
2331,55065,-0.00557998,4.65586
2340,55319,-0.00555253,4.68115
2349,55628,-0.00564079,4.71211
2358,55888,-0.00538189,4.73809
2367,56144,-0.00528775,4.76367
2376,56413,-0.00547603,4.790625
2385,56669,-0.00537601,4.81621
2394,56927,-0.00542602,4.8418
2403,57189,-0.00547603,4.86816
2412,57450,-0.00558587,4.89424
2421,57711,-0.0055692,4.92041
2430,57973,-0.00543092,4.94658
2439,58243,-0.00530442,4.97354
2448,58517,-0.00535443,4.99795
2451,58608,-0.00545936,5.0

File: 04.03.25_BslA_idx0_slipped.csv
,Time,Force (Newtons),Distance (millimeters)
0,22,0.016971,0.0
9,162,0.0160442,0.0
18,287,0.014433,0.0
27,412,0.0137593,0.0
36,534,0.0131581,0.0
45,663,0.0122579,0.0
54,792,0.0118548,0.0
63,916,0.0113586,0.0
72,1042,0.0103319,0.0
81,1167,0.00989056,0.0
90,1295,0.00955419,0.0
99,1466,0.00908445,0.0
108,1590,0.00879809,0.0
117,1718,0.00847742,0.0
126,1855,0.00829599,0.0
135,1987,0.00789294,0.0
144,2119,0.0076007,0.0
153,2252,0.00736338,0.0
162,2379,0.00678871,0.0
171,2515,0.00655728,0.0
180,2642,0.00617089,0.0
189,2778,0.00602183,0.0
198,2916,0.00580707,0.0
207,3044,0.00552562,0.0
216,3175,0.00532066,0.0
225,3307,0.00478521,0.0
234,3440,0.00464204,0.0
243,3566,0.00455966,0.0
252,3695,0.00433901,0.0
261,3832,0.00416739,0.0
270,3963,0.00392517,0.0
279,4096,0.00362116,0.0
288,4227,0.00349956,0.0
297,4359,0.00331225,0.0
306,4494,0.00312495,0.0
315,4625,0.00282683,0.0
324,4764,0.00251203,0.0
333,4894,0.0023463,0.0
342,5026,0.001905,0.0
351,5159,0.00160688,0.0
360,5294,0.00144703,0.0
369,5428,0.00136367,0.0
378,5551,0.00127541,0.0
387,5679,0.00121461,0.0
396,5806,0.00101063,0.0
405,5940,0.000878244,0.0
414,6065,0.000685053,0.0
423,6195,0.000315343,0.0
432,6326,0.000122152,0.0
441,6460,-0.000280902,0.0
450,6593,-0.000357394,0.0
459,6726,-0.000335819,0.0
468,6852,-0.000534894,0.0
477,6976,-0.000644728,0.0
486,7104,-0.000804577,0.0
495,7226,-0.0010978,0.0
504,7416,-0.00141161,0.000390625
513,7610,0.000216295,0.00234375
522,7881,0.01159,0.00771484
531,8101,0.0309611,0.0144531
540,8325,0.0675507,0.0233398
549,8587,0.154776,0.0366211
558,8784,0.226581,0.0485352
567,9015,0.320423,0.0645508
576,9199,0.431191,0.0791016
585,9387,0.564399,0.0953125
594,9570,0.730802,0.112695
603,9753,0.921907,0.130859
612,9944,1.10467,0.150098
621,10137,1.16686,0.169336
630,10319,1.20253,0.187598
639,10564,1.36577,0.212012
648,10756,1.52626,0.231152
657,10943,1.72229,0.25
666,11153,1.90504,0.270898
675,11396,2.06769,0.295215
684,11587,2.29642,0.314355
693,11782,2.4304,0.333789
702,11971,2.55323,0.352637
711,12168,2.67425,0.372363
720,12401,2.7909,0.395703
729,12588,2.90441,0.414355
738,12774,3.00804,0.433008
747,12967,3.10829,0.452344
756,13205,3.20952,0.476074
765,13403,3.343,0.495898
774,13603,3.42226,0.51582
783,13797,3.4804,0.535254
792,13992,3.5481,0.554785
801,14244,3.62397,0.57998
810,14448,3.7137,0.600293
819,14642,3.76605,0.619727
828,14841,3.8043,0.639746
837,15045,3.84376,0.660059
846,15304,3.91,0.6859375
855,15507,3.94367,0.706348
864,15722,3.9658,0.727734
873,15921,3.98124,0.747656
882,16214,4.0081,0.776953
891,16418,4.02611,0.797363
900,16621,4.03627,0.817676
909,16817,4.03938,0.837305
918,17020,4.02933,0.857617
927,17282,3.99691,0.883789
936,17488,3.98124,0.904395
945,17689,3.98047,0.924512
954,17890,3.98022,0.944629
963,18153,3.98332,0.970801
972,18360,3.98938,0.991504
981,18568,3.99171,1.0123
990,18768,3.98588,1.03232
999,18968,3.9784,1.05234
1008,19222,3.96553,1.07773
1017,19419,3.97046,1.09736
1026,19621,3.97655,1.11768
1035,19820,3.96172,1.1375
1044,20084,3.93922,1.16396
1053,20290,3.92713,1.18457
1062,20491,3.91043,1.20459
1071,20704,3.89378,1.22588
1080,20909,3.87336,1.24639
1089,21160,3.83968,1.27158
1098,21368,3.80955,1.29238
1107,21576,3.78509,1.31318
1116,21778,3.74051,1.3334
1125,22038,3.70255,1.35928
1134,22251,3.65722,1.38057
1143,22466,3.61403,1.40215
1152,22680,3.56276,1.42354
1161,22945,3.46591,1.45
1170,23152,3.4057,1.4707
1179,23366,3.33883,1.49209
1188,23636,3.23432,1.51914
1197,23851,3.14908,1.540625
1206,24122,3.01733,1.56768
1215,24333,2.91973,1.58887
1224,24544,2.76368,1.60986
1233,24758,2.6682,1.63135
1242,25021,2.53737,1.65762
1251,25240,2.4464,1.67949
1260,25453,2.3493,1.70078
1269,25669,2.24697,1.72236
1278,25879,2.09087,1.74346
1287,26152,1.97986,1.7707
1296,26369,1.92142,1.79238
1305,26595,1.87927,1.81494
1314,26809,1.84291,1.83643
1323,27082,1.7784,1.86377
1332,27292,1.72044,1.88477
1341,27514,1.63632,1.90693
1350,27726,1.5861,1.928125
1359,27944,1.53824,1.9499
1368,28222,1.47204,1.97773
1377,28437,1.42354,1.99922
1386,28654,1.39927,2.0209
1395,28871,1.37145,2.04268
1404,29212,1.28506,2.07676
1413,29427,1.25085,2.09814
1422,29645,1.22102,2.11992
1431,29870,1.16649,2.14248
1440,30094,1.12638,2.16484
1449,30365,1.04465,2.19199
1458,30588,0.996604,2.21426
1467,30810,0.961588,2.23643
1476,31031,0.927277,2.25859
1485,31311,0.896272,2.28662
1494,31543,0.878458,2.30977
1503,31806,0.849191,2.33604
1512,32029,0.825885,2.3584
1521,32252,0.785582,2.38066
1530,32532,0.747314,2.40859
1539,32755,0.726265,2.43096
1548,32977,0.706839,2.45322
1557,33204,0.674516,2.47588
1566,33483,0.637042,2.50371
1575,33710,0.610331,2.52646
1584,33942,0.578797,2.54961
1593,34178,0.509199,2.57324
1602,34404,0.445694,2.5958
1611,34678,0.366328,2.62324
1620,34905,0.322697,2.6459
1629,35140,0.253915,2.66943
1638,35372,0.209263,2.69268
1647,35662,0.177867,2.72158
1656,35890,0.15764,2.74443
1665,36129,0.136338,2.76836
1674,36355,0.106525,2.79092
1683,36587,0.0935393,2.81416
1692,36875,0.0818998,2.84297
1701,37105,0.0710772,2.86592
1710,37334,0.0621423,2.88887
1719,37573,0.0514972,2.9127
1728,37863,0.0414748,2.9418
1737,38103,0.0358733,2.96582
1746,38336,0.0260166,2.98896
1755,38569,0.0187205,3.0123
1764,38802,0.0130091,3.03564
1773,39093,0.00832345,3.06475
1782,39406,-0.0002201,3.096
1791,39641,-0.0051754,3.11953
1800,39878,-0.0135758,3.14326
1809,40208,-0.0212573,3.17627
1818,40447,-0.0268863,3.2001
1827,40688,-0.0307335,3.22432
1836,40924,-0.0364459,3.24785
1845,41222,-0.0400439,3.27764
1854,41455,-0.0420749,3.30098
1863,41688,-0.044856,3.32422
1872,41924,-0.0463241,3.34785
1881,42157,-0.0479304,3.37109
1890,42455,-0.0493857,3.40088
1899,42689,-0.0506498,3.42432
1908,42930,-0.0523934,3.44834
1917,43171,-0.0534094,3.47256
1926,43468,-0.054243,3.50225
1935,43707,-0.0543695,3.52607
1944,43948,-0.054292,3.5502
1953,44191,-0.0544744,3.57451
1962,44432,-0.0543361,3.59863
1971,44745,-0.0540164,3.62988
1980,44982,-0.0539223,3.65371
1989,45227,-0.0538841,3.67812
1998,45477,-0.0537791,3.703125
2007,45775,-0.0538566,3.73281
2016,46022,-0.0541214,3.75762
2025,46268,-0.0543087,3.78223
2034,46510,-0.0541704,3.80645
2043,46757,-0.0539331,3.83115
2052,47049,-0.0537075,3.86035
2061,47292,-0.0532496,3.88457
2070,47543,-0.0533486,3.90967
2079,47791,-0.0539615,3.93457
2088,48091,-0.053834,3.96445
2097,48342,-0.0536134,3.98955
2106,48594,-0.0536742,4.01484
2115,48874,-0.0540057,4.04277
2124,49188,-0.0538174,4.07422
2133,49430,-0.0535859,4.09834
2142,49678,-0.053431,4.12314
2151,49930,-0.0533104,4.14834
2160,50186,-0.0533153,4.17402
2169,50490,-0.0533986,4.20439
2178,50742,-0.0535751,4.22959
2187,50991,-0.053481,4.25449
2196,51244,-0.0533594,4.27979
2205,51549,-0.0534751,4.31035
2214,51801,-0.0533427,4.33545
2223,52050,-0.0533594,4.36045
2232,52302,-0.0538174,4.38555
2241,52629,-0.0538782,4.41826
2250,52883,-0.0538782,4.44365
2259,53132,-0.0538448,4.46855
2268,53388,-0.0540547,4.49414
2277,53650,-0.0541547,4.52041
2286,53959,-0.0540821,4.55127
2295,54215,-0.0540213,4.57686
2304,54466,-0.0545401,4.60195
2313,54718,-0.0543146,4.62715
2322,55032,-0.0542645,4.65859
2331,55290,-0.0540606,4.68428
2340,55540,-0.0541763,4.709375
2349,55787,-0.0543195,4.73408
2358,56104,-0.0542812,4.76572
2367,56355,-0.0544028,4.79082
2376,56610,-0.053989,4.81631
2385,56878,-0.0538615,4.84307
2394,57136,-0.0541988,4.86895
2403,57447,-0.0539772,4.9001
2412,57706,-0.0539772,4.92588
2421,57975,-0.0538566,4.95283
2430,58267,-0.0538448,4.98203
2438,58563,-0.0538174,5.0