Folder: cellulose_origami/tensile_tests (part 2)

File: 04.03.25_BslA_idx2_slipped.csv
,Time,Force (Newtons),Distance (millimeters)
0,2,-0.000157342,0.0
7,107,4.17332e-05,0.0
14,208,0.000262383,0.0
21,307,0.000283957,0.0
28,405,0.000355546,0.0
35,508,0.000311416,0.0
42,612,0.00027317,0.0
49,714,0.000372217,0.0
56,817,0.000460477,0.0
63,918,0.000587964,0.0
70,1023,0.000636997,0.0
77,1121,0.000664455,0.0
84,1225,0.000703682,0.0
91,1324,0.000725257,0.0
98,1426,0.000753696,0.0
105,1525,0.000737025,0.0
112,1630,0.000709566,0.0
119,1731,0.000697798,0.0
126,1837,0.000697798,0.0
133,1937,0.000620326,0.0
140,2040,0.000576196,0.0
147,2144,0.000609538,0.0
154,2251,0.00062621,0.0
161,2347,0.000709566,0.0
168,2437,0.000725257,0.0
175,2528,0.000587964,0.0
182,2617,0.00049382,0.0
189,2719,0.00053795,0.0
196,2820,0.000642881,0.0
203,2917,0.000797826,0.0
210,3024,0.00086353,0.0
217,3125,0.000825285,0.0
224,3229,0.000753696,0.0
231,3332,0.000681127,0.0
238,3428,0.000636997,0.0
245,3579,0.000648765,0.0
252,3678,0.000747812,0.0
259,3775,0.000769387,0.0
266,3878,0.000813517,0.0
273,3974,0.000880202,0.0
280,4070,0.00095179,0.0
287,4171,0.00106751,0.0
294,4374,0.00114498,0.0
301,4470,0.00123913,0.0
308,4573,0.00136073,0.0
315,4673,0.00138819,0.0
322,4773,0.00133817,0.0
329,4867,0.00122834,0.0
336,4960,0.00123324,0.0
343,5058,0.00127247,0.0
350,5154,0.0012607,0.0
357,5241,0.0013215,0.0
364,5341,0.00122245,0.0
371,5438,0.00118911,0.0
378,5537,0.00111164,0.0
385,5629,0.00101848,0.0
392,5727,0.00110085,0.0
399,5830,0.00122834,0.0
406,5929,0.00135484,0.0
413,6034,0.00143232,0.0
420,6130,0.00153725,0.0
427,6226,0.00160295,0.0
434,6320,0.00161962,0.0
441,6416,0.00161962,0.0
448,6519,0.00153136,0.0
455,6622,0.00141564,0.0
462,6722,0.00133817,0.0
469,6815,0.00133817,0.0
476,6917,0.00140486,0.0
483,7021,0.00143232,0.0
490,7123,0.00149802,0.0
497,7228,0.00148723,0.0
504,7377,0.00145389,0.000390625
511,7522,0.00151469,0.0015625
518,7714,0.00168042,0.00449219
525,7861,0.0017579,0.0078125
532,8003,0.00217664,0.0119141
539,8151,0.00271797,0.0170898
546,8320,0.00383298,0.02421875
553,8504,0.00451749,0.0333008
560,8689,0.00500292,0.0439453
567,8838,0.00524514,0.0536133
574,8974,0.00641508,0.0632813
581,9115,0.00744772,0.0741211
588,9263,0.0127286,0.0864258
595,9406,0.019401,0.0991211
602,9552,0.0498252,0.113086
609,9738,0.106896,0.131738
616,9884,0.145693,0.146387
623,10034,0.233337,0.161328
630,10177,0.280313,0.175586
637,10328,0.370712,0.190723
644,10508,0.457887,0.208301
651,10687,0.540812,0.22666
658,10848,0.615757,0.242676
665,11020,0.64913,0.259863
672,11176,0.713314,0.275488
679,11454,0.796339,0.30332
686,11604,0.822917,0.318262
693,11747,0.8672,0.332617
700,11895,0.905379,0.347363
707,12039,0.92278,0.361816
714,12185,0.951583,0.376367
721,12386,0.977863,0.396484
728,12530,0.990225,0.41084
735,12678,1.012,0.425684
742,12828,1.02087,0.440625
749,12978,1.0354,0.455762
756,13123,1.04399,0.470215
763,13268,1.05526,0.484766
770,13487,1.06647,0.506543
777,13639,1.07744,0.521777
784,13791,1.07886,0.536914
791,13937,1.07948,0.55166
798,14089,1.07711,0.566797
805,14237,1.07312,0.581543
812,14436,1.0698,0.601465
819,14585,1.07052,0.616309
826,14733,1.06905,0.631152
833,14886,1.06919,0.646484
840,15033,1.06969,0.661133
847,15268,1.07545,0.684668
854,15426,1.07626,0.700488
861,15574,1.07682,0.715332
868,15727,1.07312,0.730566
875,15884,1.07227,0.746289
882,16037,1.07289,0.761621
889,16237,1.07908,0.781543
896,16387,1.08555,0.796484
903,16539,1.08738,0.811719
910,16691,1.08971,0.826953
917,16913,1.09044,0.849219
924,17077,1.09045,0.865527
931,17277,1.08639,0.885547
938,17427,1.07968,0.900488
945,17578,1.07669,0.915527
952,17730,1.06731,0.930859
959,17886,1.06438,0.946387
966,18039,1.0602,0.961816
973,18248,1.06087,0.982715
980,18402,1.0637,0.998047
987,18555,1.06459,1.01338
994,18709,1.06485,1.02871
1001,18864,1.06295,1.04424
1008,19070,1.06028,1.06484
1015,19226,1.05439,1.08047
1022,19399,1.05223,1.09775
1029,19558,1.04787,1.11367
1036,19712,1.0408,1.129
1043,19873,1.03743,1.14521
1050,20081,1.02533,1.16592
1057,20243,1.00864,1.18213
1064,20401,0.991279,1.19795
1071,20557,0.982962,1.21357
1078,20713,0.969358,1.2291
1085,20873,0.95475,1.24512
1092,21089,0.928879,1.2667
1099,21248,0.8915,1.28262
1106,21409,0.874269,1.29873
1113,21563,0.845886,1.31406
1120,21721,0.823364,1.32988
1127,21881,0.814258,1.3459
1134,22096,0.785709,1.36748
1141,22251,0.775157,1.38301
1148,22417,0.757911,1.39961
1155,22574,0.74338,1.41523
1162,22772,0.723259,1.43506
1169,22932,0.71019,1.45107
1176,23154,0.649108,1.47324
1183,23313,0.625553,1.48916
1190,23477,0.590404,1.50547
1197,23632,0.561585,1.521
1204,23789,0.545884,1.53672
1211,23960,0.522622,1.55381
1218,24203,0.491694,1.578125
1225,24362,0.475022,1.59395
1232,24522,0.436302,1.60996
1239,24681,0.393918,1.62598
1246,24837,0.372201,1.6416
1253,25064,0.324375,1.66416
1260,25223,0.315639,1.68008
1267,25389,0.302763,1.69668
1274,25554,0.292118,1.71318
1281,25715,0.279298,1.7293
1288,25877,0.272245,1.74551
1295,26106,0.25326,1.76836
1302,26294,0.241262,1.78721
1309,26456,0.234921,1.80352
1316,26621,0.213823,1.81992
1323,26783,0.184192,1.83613
1330,26947,0.162668,1.85254
1337,27172,0.15343,1.875
1344,27334,0.147867,1.89121
1351,27499,0.145637,1.90771
1358,27665,0.143469,1.92432
1365,27827,0.142089,1.94053
1372,28043,0.140991,1.96211
1379,28206,0.140395,1.97842
1386,28372,0.141471,1.99502
1393,28538,0.142205,2.01162
1400,28705,0.142658,2.02822
1407,28872,0.141636,2.04502
1414,29124,0.141068,2.07021
1421,29293,0.140367,2.08711
1428,29461,0.137796,2.104
1435,29626,0.134423,2.12041
1442,29798,0.131073,2.1376
1449,29985,0.126316,2.15625
1456,30214,0.119804,2.1793
1463,30391,0.113712,2.196875
1470,30588,0.109992,2.2165
1477,30753,0.106289,2.23311
1484,30920,0.10338,2.24971
1491,31091,0.0973698,2.26689
1498,31321,0.0910896,2.28994
1505,31493,0.0871875,2.30713
1512,31663,0.0782145,2.32402
1519,31840,0.0702564,2.3418
1526,32015,0.0621325,2.359375
1533,32233,0.0529986,2.38105
1540,32406,0.0447924,2.39834
1547,32582,0.0365195,2.41592
1554,32756,0.0257097,2.4334
1561,32928,0.0203896,2.45059
1568,33101,0.0127894,2.46787
1575,33322,0.00910308,2.48994
1582,33494,0.00872748,2.50713
1589,33661,0.00823127,2.52383
1596,33833,0.00819302,2.54111
1603,34011,0.00829207,2.55889
1610,34183,0.00834208,2.57607
1617,34407,0.00857842,2.59844
1624,34583,0.00858431,2.61602
1631,34758,0.00849605,2.63359
1638,34932,0.00847937,2.65098
1645,35107,0.00850193,2.66846
1652,35279,0.00859509,2.68564
1659,35525,0.00843524,2.71035
1666,35701,0.0083362,2.72783
1673,35878,0.00844113,2.74561
1680,36049,0.00866766,2.7627
1687,36205,0.00868335,2.77832
1694,36366,0.00874415,2.79434
1701,36598,0.00884909,2.81758
1708,36773,0.0087775,2.83506
1715,36952,0.00863922,2.85293
1722,37130,0.00863432,2.8708
1729,37312,0.00870002,2.88887
1736,37566,0.00875592,2.91436
1743,37743,0.00870591,2.93213
1750,37921,0.00859509,2.9499
1757,38106,0.00847937,2.96836
1764,38283,0.00839111,2.98604
1771,38467,0.008397,3.00449
1778,38759,0.00843034,3.03369
1785,38933,0.00843034,3.05098
1792,39159,0.00835777,3.07363
1799,39345,0.00809888,3.09229
1806,39525,0.00814301,3.11025
1813,39761,0.00831364,3.13379
1818,39906,0.00836366,3.14834

File: 04.03.25_WT.csv
,Time,Force (Newtons),Distance (millimeters)
0,5,3.65788e-07,0.0
9,398,6.60703e-05,0.0
18,526,3.65788e-07,0.0
27,650,-9.37781e-05,0.0
36,773,-0.000171251,0.0
45,894,-9.9662e-05,0.0
54,1018,4.9399e-05,0.0
63,1143,6.60703e-05,0.0
72,1265,9.3529e-05,0.0
81,1382,2.19404e-05,0.0
90,1505,7.68577e-05,0.0
99,1633,0.000120988,0.0
108,1761,0.000193557,0.0
117,1887,0.00019846,0.0
126,2008,0.000171001,0.0
135,2135,0.000176885,0.0
144,2257,0.000181789,0.0
153,2382,0.000176885,0.0
162,2507,0.000275933,0.0
171,2633,0.000380864,0.0
180,2756,0.000529925,0.0
189,2877,0.000645643,0.0
198,3004,0.000717232,0.0
207,3128,0.000794704,0.0
216,3252,0.00087708,0.0
225,3382,0.000932978,0.0
234,3507,0.000971224,0.0
243,3629,0.00103203,0.0
252,3753,0.00112617,0.0
261,3888,0.00116442,0.0
270,4020,0.00121933,0.0
279,4151,0.00135172,0.0
288,4276,0.00146842,0.0
297,4406,0.00147332,0.0
306,4538,0.00156747,0.0
315,4671,0.00151255,0.0
324,4804,0.00152824,0.0
333,4939,0.00155668,0.0
342,5069,0.00159493,0.0
351,5199,0.00161748,0.0
360,5331,0.00161748,0.0
369,5461,0.00155668,0.0
378,5591,0.00166161,0.0
387,5728,0.00166652,0.0
396,5858,0.00177145,0.0
405,5985,0.00171065,0.0
414,6115,0.00180969,0.0
423,6241,0.0020529,0.0
432,6371,0.00211958,0.0
441,6502,0.00211958,0.0
450,6643,0.00189893,0.0
459,6773,0.00190972,0.0
468,6905,0.00198719,0.0
477,7044,0.00209703,0.0
486,7169,0.00210291,0.0
495,7302,0.00209703,0.0
504,7545,0.0021137,0.00078125
513,7728,0.00230689,0.00283203
522,7909,0.00299139,0.00634766
531,8092,0.00410641,0.0114258
540,8274,0.00590495,0.0177734
549,8451,0.00845468,0.0253906
558,8651,0.0112525,0.0355469
567,8848,0.0141004,0.0473633
576,9042,0.0176219,0.0604492
585,9229,0.0215789,0.0748047
594,9422,0.0266391,0.0911133
603,9615,0.0335695,0.108984
612,9810,0.0427917,0.128418
621,10002,0.0560817,0.147559
630,10193,0.0745692,0.166699
639,10430,0.113891,0.190332
648,10619,0.15048,0.20918
657,10814,0.196507,0.228711
666,11018,0.2527,0.249121
675,11272,0.360598,0.274512
684,11454,0.403805,0.292773
693,11643,0.500362,0.311719
702,11830,0.615037,0.330371
711,12065,0.81766,0.353906
720,12252,0.975901,0.372559
729,12442,1.14414,0.391504
738,12629,1.31765,0.410254
747,12815,1.48917,0.428906
756,13064,1.63462,0.453809
765,13252,1.72006,0.472559
774,13445,1.83826,0.491797
783,13630,2.02456,0.510352
792,13964,2.36633,0.54375
801,14162,2.5243,0.563477
810,14353,2.67471,0.582617
819,14544,2.80935,0.601758
828,14736,2.87367,0.620898
837,14984,3.07891,0.645801
846,15177,3.24481,0.665039
855,15369,3.37314,0.684277
864,15577,3.4949,0.70498
873,15828,3.62018,0.730078
882,16026,3.73471,0.749902
891,16225,3.80264,0.769824
900,16426,3.90486,0.789941
909,16619,4.01153,0.80918
918,16863,4.11942,0.833691
927,17065,4.22248,0.853809
936,17261,4.33628,0.8734375
945,17454,4.5252,0.892676
954,17704,4.65872,0.917676
963,17902,4.78143,0.9375
972,18106,4.8987,0.95791
981,18300,5.02232,0.977344
990,18511,5.20452,0.9984375
999,18767,5.32518,1.02402
1008,18965,5.43943,1.04385
1017,19168,5.53147,1.06406
1026,19366,5.63594,1.08389
1035,19621,5.76736,1.10947
1044,19822,5.90288,1.12949
1053,20031,6.08381,1.15039
1062,20238,6.20939,1.17119
1071,20447,6.33505,1.19209
1080,20700,6.52463,1.21719
1089,20911,6.64576,1.23838
1098,21115,6.76129,1.25879
1107,21359,6.93654,1.2832
1116,21615,7.05155,1.30879
1125,21821,7.17655,1.32939
1134,22032,7.35993,1.35049
1143,22238,7.48643,1.37109
1152,22448,7.60892,1.39209
1161,22716,7.79747,1.41885
1170,22923,7.91952,1.43955
1179,23128,8.03324,1.46006
1188,23334,8.14384,1.48076
1197,23595,8.29042,1.50674
1206,23809,8.3948,1.528125
1215,24020,8.50763,1.54932
1224,24228,8.66567,1.57012
1233,24438,8.77252,1.59102
1242,24700,8.93718,1.61729
1251,24907,9.03589,1.63799
1260,25101,9.12259,1.65732
1269,25309,9.20265,1.67822
1278,25572,9.3214,1.70449
1287,25788,9.4017,1.72607
1296,25994,9.48855,1.74668
1305,26202,9.58415,1.76748
1314,26415,9.71109,1.78877
1323,26690,9.80061,1.81621
1332,26905,9.8705,1.83779
1341,27111,9.96783,1.8584
1350,27325,10.0629,1.87979
1359,27596,10.1926,1.90684
1368,27815,10.2717,1.92881
1377,28032,10.3775,1.95049
1386,28259,10.4416,1.97314
1395,28472,10.4648,1.99443
1404,28744,10.4402,2.02168
1413,28959,10.4025,2.04316
1422,29222,9.98196,2.06943
1431,29445,9.57124,2.0918
1440,29712,7.88441,2.11846
1449,29949,4.41908,2.14219
1458,30165,2.29117,2.16377
1467,30385,1.59938,2.18574
1476,30608,1.2852,2.20801
1485,30882,1.0755,2.23555
1494,31102,0.977722,2.25752
1503,31328,0.904184,2.28008
1512,31543,0.837203,2.30146
1521,31817,0.725242,2.32891
1530,32043,0.668255,2.35156
1539,32269,0.615623,2.37412
1548,32497,0.523077,2.39697
1557,32723,0.461372,2.41963
1566,33022,0.380758,2.44941
1575,33248,0.321353,2.47197
1584,33469,0.225211,2.49414
1593,33696,0.189007,2.5168
1602,33978,0.17207,2.54502
1611,34214,0.161899,2.56865
1620,34436,0.156341,2.59082
1629,34697,0.147467,2.61689
1638,34930,0.147036,2.64023
1647,35215,0.15063,2.66875
1656,35446,0.152434,2.6918
1665,35667,0.152782,2.71387
1674,35899,0.150773,2.73701
1683,36186,0.13377,2.76582
1692,36420,0.102042,2.78926
1701,36651,0.0942766,2.8123
1710,36879,0.0951925,2.83506
1719,37108,0.0946963,2.85801
1728,37434,0.0920034,2.890625
1737,37667,0.0878258,2.91396
1746,37903,0.0837364,2.9375
1755,38129,0.0789625,2.96006
1764,38420,0.0776759,2.98926
1773,38649,0.0775053,3.01211
1782,38878,0.0758499,3.03496
1791,39111,0.0755567,3.0583
1800,39343,0.0759823,3.08154
1809,39632,0.0747349,3.11035
1818,39860,0.0636141,3.1332
1827,40095,0.0598121,3.15664
1836,40334,0.0589011,3.18057
1845,40614,0.059768,3.20859
1854,40852,0.0620912,3.23242
1863,41087,0.0659766,3.25586
1872,41321,0.0678967,3.2793
1881,41553,0.0683939,3.30254
1890,41828,0.0697404,3.32998
1899,42066,0.0712967,3.35381
1908,42309,0.0733659,3.37813
1917,42542,0.0751987,3.40146
1926,42836,0.0788017,3.43086
1935,43072,0.0819643,3.45439
1944,43308,0.0835756,3.47803
1953,43545,0.0807395,3.50166
1962,43792,0.0772738,3.52627
1971,44073,0.0703641,3.55449
1980,44398,0.0406283,3.58701
1989,44641,0.0143269,3.61133
1998,44894,0.00929903,3.63662
2007,45196,0.00908917,3.6668
2016,45436,0.00895678,3.69072
2025,45672,0.00881949,3.71436
2034,45952,0.00874201,3.74238
2043,46212,0.0089352,3.76826
2052,46504,0.00875868,3.79756
2061,46752,0.00878026,3.82246
2070,46992,0.00922744,3.84639
2079,47231,0.00944809,3.87021
2088,47535,0.00949811,3.90059
2097,47779,0.00974033,3.925
2106,48021,0.00965795,3.94932
2115,48277,0.00979623,3.9749
2124,48527,0.00994529,3.9999
2133,48823,0.00991195,4.02949
2142,49081,0.00948732,4.05527
2151,49333,0.00932159,4.08037
2160,49587,0.00942063,4.10586
2169,49891,0.00915585,4.13623
2178,50144,0.00915585,4.16152
2187,50389,0.00899012,4.18604
2196,50637,0.00892442,4.21094
2205,50892,0.00904504,4.23633
2214,51256,0.00904504,4.27275
2223,51505,0.00885185,4.29766
2232,51757,0.0088136,4.32285
2241,52007,0.00879693,4.34785
2250,52314,0.00890186,4.37852
2259,52562,0.00895678,4.40342
2268,52813,0.00882439,4.42842
2277,53063,0.0088744,4.45342
2286,53313,0.00886362,4.47842
2295,53618,0.00864787,4.50898
2304,53870,0.00889107,4.53408
2313,54131,0.00885185,4.56016
2322,54385,0.00877536,4.58564
2331,54687,0.00913918,4.61582
2340,54976,0.00894011,4.64414
2349,55226,0.00898424,4.66963
2358,55474,0.00908427,4.69453
2367,55792,0.00904504,4.72559
2376,56044,0.00896855,4.75156
2385,56307,0.00913918,4.77783
2394,56577,0.00938239,4.8043
2403,56897,0.00907838,4.83682
2412,57201,0.00939318,4.86719
2421,57464,0.00980113,4.89346
2430,57727,0.00986193,4.91982
2439,57991,0.0097521,4.94619
2448,58309,0.00980702,4.97803
2457,58567,0.00992862,4.99902
2459,58625,0.00995019,5.0

File: 04.03.25_WT_idx0_slipped.csv
,Time,Force (Newtons),Distance (millimeters)
0,1,-0.000141508,0.0
9,209,-3.06929e-05,0.0
18,345,4.08957e-05,0.0
27,478,0.000140924,0.0
36,614,0.000300772,0.0
45,743,0.000294888,0.0
54,878,0.00013504,0.0
63,1013,2.42244e-05,0.0
72,1134,-3.65768e-05,0.0
81,1263,7.42383e-05,0.0
90,1428,0.000156614,0.0
99,1565,0.000189957,0.0
108,1696,9.58129e-05,0.0
117,1832,6.83543e-05,0.0
126,1966,0.000140924,0.0
135,2101,0.000179169,0.0
144,2238,0.000185053,0.0
153,2360,0.000256642,0.0
162,2478,0.000393935,0.0
171,2595,0.000477292,0.0
180,2714,0.00037236,0.0
189,2832,0.000300772,0.0
198,2961,0.000317443,0.0
207,3091,0.000466504,0.0
216,3226,0.000582223,0.0
225,3361,0.000643024,0.0
234,3497,0.000631256,0.0
243,3621,0.000576339,0.0
252,3741,0.000538093,0.0
261,3873,0.000542996,0.0
270,3998,0.000493963,0.0
279,4123,0.000498866,0.0
288,4247,0.000355689,0.0
297,4374,0.000195841,0.0
306,4503,0.000118368,0.0
315,4623,0.000212512,0.0
324,4826,0.000344902,0.0
333,4950,0.000389032,0.0
342,5079,0.000554764,0.0
351,5212,0.000670483,0.0
360,5337,0.000807776,0.0
369,5459,0.00110099,0.0
378,5583,0.00119416,0.0
387,5704,0.00121083,0.0
396,5828,0.00150405,0.0
405,5955,0.00161977,0.0
414,6085,0.00165801,0.0
423,6211,0.00145403,0.0
432,6338,0.00132655,0.0
441,6456,0.00136577,0.0
450,6577,0.00148149,0.0
459,6702,0.00145403,0.0
468,6830,0.0013491,0.0
477,6956,0.0012883,0.0
486,7083,0.00137068,0.0
495,7206,0.00144815,0.0
504,7384,0.0012883,0.000390625
513,7559,0.00119416,0.001953125
522,7801,0.00131576,0.00634766
531,7985,0.00154818,0.0113281
540,8164,0.00206107,0.0176758
549,8334,0.00290542,0.0249023
558,8510,0.00394296,0.0337891
567,8689,0.00474318,0.044043
576,8861,0.00552674,0.0552734
585,9035,0.00592979,0.06796875
594,9217,0.0068624,0.0826172
603,9398,0.007745,0.0986328
612,9578,0.00872763,0.115918
621,9779,0.00953864,0.136035
630,10071,0.0105438,0.165234
639,10263,0.0113715,0.184375
648,10465,0.0122649,0.20459
657,10688,0.013325,0.226855
666,10877,0.0139595,0.245801
675,11079,0.0145773,0.266016
684,11267,0.0151627,0.284766
693,11457,0.0160846,0.303809
702,11649,0.0168289,0.323047
711,11843,0.0175085,0.342383
720,12038,0.0183195,0.361914
729,12233,0.0190972,0.381445
738,12419,0.0199857,0.4
747,12602,0.0210516,0.418359
756,12796,0.0223922,0.437695
765,13025,0.0235347,0.460645
774,13212,0.0246105,0.479297
783,13396,0.0261452,0.497754
792,13591,0.027983,0.5171875
801,13798,0.0295442,0.537891
810,13989,0.0312819,0.557031
819,14175,0.0333845,0.575586
828,14364,0.0354047,0.594434
837,14555,0.037872,0.613574
846,14748,0.0405375,0.63291
855,14941,0.0431362,0.652148
864,15132,0.0459625,0.671289
873,15322,0.0490634,0.690332
882,15559,0.0551013,0.713965
891,15766,0.0592848,0.734668
900,15959,0.0639861,0.754004
909,16159,0.0692847,0.773926
918,16356,0.0748146,0.793652
927,16566,0.0813988,0.814648
936,16775,0.092193,0.835645
945,17152,0.108418,0.873242
954,17362,0.118121,0.894336
963,17575,0.129269,0.915625
972,17924,0.153656,0.950488
981,18123,0.16806,0.97041
990,18314,0.183304,0.989551
999,18507,0.200185,1.00879
1008,18719,0.217928,1.02998
1017,19006,0.245296,1.05859
1026,19247,0.275621,1.08271
1035,19443,0.298023,1.10234
1044,19646,0.322708,1.12266
1053,19864,0.347897,1.14443
1062,20063,0.374161,1.16436
1071,20259,0.40149,1.18398
1080,20510,0.447053,1.20908
1089,20705,0.479481,1.22852
1098,20897,0.513422,1.24775
1107,21101,0.549405,1.26816
1116,21298,0.585784,1.28789
1125,21496,0.623947,1.30771
1134,21701,0.665062,1.328125
1143,21897,0.707364,1.34785
1152,22100,0.774037,1.36807
1161,22301,0.819804,1.38818
1170,22498,0.867282,1.40791
1179,22765,0.941902,1.43457
1188,22969,0.991975,1.45498
1197,23163,1.04377,1.47441
1206,23367,1.09748,1.49473
1215,23573,1.15357,1.51543
1224,23776,1.20894,1.53564
1233,24029,1.29375,1.56094
1242,24230,1.35077,1.58105
1251,24429,1.41047,1.60098
1260,24625,1.47248,1.62061
1269,24842,1.53239,1.64229
1278,25053,1.62375,1.66328
1287,25256,1.68369,1.68369
1296,25464,1.74411,1.70439
1305,25675,1.80563,1.72559
1314,25952,1.86574,1.75332
1323,26161,1.858,1.77412
1332,26364,1.90755,1.79443
1341,26569,2.03661,1.81494
1350,26782,2.09645,1.83623
1359,26986,2.1557,1.85664
1368,27193,2.21521,1.87734
1377,27400,2.27378,1.89805
1386,27607,2.3342,1.91875
1395,27818,2.42031,1.93984
1404,28044,2.47729,1.9624
1413,28260,2.53343,1.98408
1422,28527,2.61909,2.01074
1431,28738,2.67474,2.03184
1440,28944,2.75831,2.05244
1449,29154,2.81465,2.07344
1458,29367,2.86897,2.09473
1467,29573,2.9244,2.11533
1476,29786,2.97624,2.13662
1485,30000,3.05217,2.15801
1494,30217,3.10135,2.17979
1503,30428,3.15263,2.20088
1512,30656,3.22542,2.22363
1521,30892,3.27328,2.24717
1530,31180,3.34501,2.27607
1539,31476,3.41488,2.30557
1548,31690,3.46563,2.32705
1557,31917,3.53403,2.34971
1566,32137,3.58397,2.37178
1575,32355,3.62234,2.39346
1584,32572,3.64779,2.41523
1593,32784,3.68778,2.43643
1602,33010,3.73806,2.45898
1611,33222,3.78765,2.48027
1620,33436,3.85447,2.50166
1629,33651,3.89921,2.52314
1638,33865,3.9381,2.54453
1647,34083,3.99473,2.56631
1656,34293,4.03257,2.5873
1665,34504,4.07105,2.6085
1674,34733,4.1067,2.63125
1683,35009,4.15052,2.65889
1692,35223,4.17812,2.68037
1701,35444,4.20893,2.70244
1710,35655,4.23617,2.72354
1719,35880,4.25506,2.746
1728,36099,4.28645,2.76797
1737,36324,4.29515,2.79043
1746,36542,4.17668,2.81221
1755,36762,4.18442,2.83428
1764,36983,4.28321,2.85635
1773,37206,4.33317,2.87861
1782,37423,4.37592,2.90029
1791,37650,4.40379,2.92305
1800,37873,4.4227,2.94531
1809,38099,4.44947,2.96797
1818,38323,4.46041,2.99023
1827,38544,4.47692,3.0124
1836,38837,4.50081,3.0417
1845,39060,4.5039,3.06406
1854,39289,4.50258,3.08691
1863,39509,4.5113,3.10898
1872,39736,4.49853,3.13164
1881,39962,4.47299,3.1542
1890,40185,4.39788,3.17656
1899,40415,4.31058,3.19961
1908,40636,4.20024,3.22158
1917,40865,3.98202,3.24443
1926,41086,3.81252,3.2666
1935,41314,3.61417,3.28936
1944,41535,3.23777,3.31152
1953,41769,2.97416,3.33486
1962,41994,2.67364,3.35742
1971,42224,2.51845,3.38037
1980,42493,2.34202,3.40732
1989,42737,2.21995,3.43164
1998,43022,2.01825,3.46016
2007,43250,1.85552,3.48291
2016,43476,1.76768,3.50566
2025,43708,1.65084,3.52881
2034,43942,1.5604,3.55225
2043,44191,1.42174,3.57705
2052,44431,1.34806,3.60117
2061,44666,1.27771,3.62461
2070,44892,1.22982,3.64727
2079,45140,1.14541,3.67197
2088,45391,1.11402,3.69717
2097,45622,1.06531,3.72012
2106,45854,1.03903,3.74336
2115,46093,1.01349,3.76729
2124,46329,0.987289,3.79082
2133,46575,0.926571,3.81553
2142,46804,0.882768,3.83848
2151,47043,0.835924,3.8623
2160,47349,0.789953,3.89287
2169,47578,0.763745,3.91572
2178,47820,0.720063,3.93994
2187,48047,0.691768,3.9627
2196,48282,0.651315,3.98623
2205,48526,0.613787,4.01055
2214,48765,0.553384,4.03447
2223,48998,0.517241,4.05781
2232,49248,0.476219,4.08281
2241,49491,0.450049,4.10713
2250,49737,0.407907,4.13174
2259,49977,0.374381,4.15576
2268,50219,0.338536,4.17988
2277,50464,0.278585,4.20439
2286,50696,0.236102,4.22754
2295,50937,0.191063,4.25166
2304,51169,0.181096,4.2749
2313,51413,0.168921,4.29922
2322,51647,0.162051,4.32266
2331,51888,0.153778,4.34678
2340,52182,0.146846,4.37627
2349,52427,0.135394,4.40059
2358,52670,0.101426,4.425
2367,52913,0.087171,4.44922
2376,53222,0.0693288,4.48018
2385,53474,0.0602508,4.50537
2394,53721,0.0438815,4.53008
2403,53965,0.0317125,4.55449
2412,54211,0.0211007,4.5791
2421,54461,0.0115147,4.604
2430,54702,0.00511878,4.628125
2439,54954,0.00306036,4.65342
2448,55193,0.00386549,4.67725
2457,55441,0.00528941,4.70205
2466,55764,0.00564834,4.734375
2475,56011,0.00533354,4.75908
2484,56259,0.00482066,4.78389
2493,56507,0.00464414,4.80859
2502,56757,0.00457745,4.83369
2511,57056,0.00439505,4.86357
2520,57311,0.00442349,4.88906
2529,57556,0.00444506,4.91357
2538,57804,0.0044176,4.93838
2547,58049,0.00414694,4.96289
2556,58317,0.00402534,4.98965
2563,58514,0.00413615,5.0