Folder: cellulose_origami/tensile_tests (part 4)

File: 04.06.25_WT_dry_idx0.csv
,Time,Force (Newtons),Distance (millimeters)
0,1,-0.000428076,0.0
9,154,-0.00043396,0.0
18,281,-0.000460438,0.0
27,404,-0.00047809,0.0
36,526,-0.000486916,0.0
45,652,-0.000482013,0.0
54,777,-0.000483974,0.0
63,910,-0.000480051,0.0
72,1038,-0.00047809,0.0
81,1160,-0.000470245,0.0
90,1281,-0.000471225,0.0
99,1512,-0.000506529,0.0
108,1636,-0.000513394,0.0
117,1752,-0.000516336,0.0
126,1873,-0.0005232,0.0
135,1987,-0.000532026,0.0
144,2104,-0.000533007,0.0
153,2225,-0.000529084,0.0
162,2351,-0.000530065,0.0
171,2471,-0.00055262,0.0
180,2591,-0.000557524,0.0
189,2714,-0.000557524,0.0
198,2840,-0.000554582,0.0
207,2963,-0.000562427,0.0
216,3081,-0.000569292,0.0
225,3201,-0.000573214,0.0
234,3322,-0.000583021,0.0
243,3441,-0.000576156,0.0
252,3560,-0.000565369,0.0
261,3679,-0.000556543,0.0
270,3799,-0.000571253,0.0
279,3927,-0.000580079,0.0
288,4056,-0.000584982,0.0
297,4175,-0.000577137,0.0
306,4292,-0.000577137,0.0
315,4409,-0.000575176,0.0
324,4525,-0.00058106,0.0
333,4641,-0.000587924,0.0
342,4754,-0.000608518,0.0
351,4867,-0.000602634,0.0
360,4984,-0.000600673,0.0
369,5108,-0.000599692,0.0
378,5231,-0.000613422,0.0
387,5363,-0.000618325,0.0
396,5495,-0.000623228,0.0
405,5619,-0.000638919,0.0
414,5740,-0.000634016,0.0
423,5866,-0.00062519,0.0
432,5985,-0.000605576,0.0
441,6109,-0.000597731,0.0
450,6236,-0.000597731,0.0
459,6357,-0.000600673,0.0
468,6477,-0.000620286,0.0
477,6600,-0.000634016,0.0
486,6726,-0.000632054,0.0
495,6852,-0.000631074,0.0
504,7217,-0.000577137,0.00214844
513,7391,-0.00040454,0.005078125
522,7592,0.00367699,0.01015625
531,7781,0.00754277,0.0165039
540,8021,0.0457573,0.0267578
549,8226,0.0969108,0.0375
558,8413,0.147357,0.0488281
567,8651,0.228242,0.0655273
576,8838,0.277214,0.0803711
585,9046,0.307257,0.0985352
594,9239,0.302436,0.1171875
603,9421,0.297868,0.135352
612,9666,0.333205,0.159961
621,9848,0.38079,0.178027
630,10039,0.423677,0.197168
639,10219,0.468016,0.215234
648,10459,0.529767,0.23916
657,10642,0.565842,0.25752
666,10824,0.602693,0.275684
675,11014,0.641533,0.294727
684,11205,0.693063,0.31377
693,11451,0.750064,0.338379
702,11640,0.800142,0.357227
711,11829,0.845808,0.376172
720,12010,0.887643,0.394336
729,12258,0.949974,0.419141
738,12449,0.988213,0.438184
747,12636,1.02353,0.456836
756,12823,1.05625,0.475586
765,13066,1.0878,0.499902
774,13249,1.12132,0.518164
783,13513,1.16671,0.544531
792,13699,1.19339,0.563184
801,13950,1.2158,0.588281
810,14145,1.23842,0.607715
819,14331,1.26886,0.626367
828,14525,1.29912,0.645703
837,14718,1.32784,0.665137
846,14957,1.37342,0.688965
855,15150,1.40362,0.708203
864,15341,1.43651,0.727344
873,15532,1.46875,0.746484
882,15716,1.50078,0.764844
891,15911,1.53146,0.784375
900,16115,1.56333,0.804785
909,16386,1.61481,0.831836
918,16566,1.64849,0.849805
927,16757,1.68175,0.868945
936,16944,1.71442,0.887695
945,17140,1.74943,0.907324
954,17328,1.78669,0.926074
963,17518,1.8212,0.94502
972,17779,1.874,0.971191
981,17971,1.90984,0.99043
990,18167,1.94633,1.00986
999,18366,1.9845,1.02988
1008,18563,2.02179,1.04951
1017,18822,2.07715,1.07539
1026,19027,2.11062,1.0959
1035,19219,2.13521,1.11514
1044,19414,2.16695,1.13467
1053,19608,2.21193,1.1541
1062,19806,2.25615,1.17383
1071,20055,2.31954,1.19873
1080,20255,2.3664,1.21875
1089,20456,2.40951,1.23877
1098,20660,2.45087,1.25928
1107,20856,2.49566,1.27881
1116,21054,2.54142,1.29863
1125,21256,2.58873,1.31875
1134,21513,2.66073,1.34453
1143,21714,2.70701,1.36465
1152,21920,2.75457,1.38525
1161,22120,2.80402,1.40518
1170,22318,2.85619,1.425
1179,22525,2.93153,1.4457
1188,22732,2.98262,1.46641
1197,22939,3.03206,1.48711
1206,23142,3.0825,1.50742
1215,23348,3.13657,1.52793
1224,23557,3.20982,1.54883
1233,23767,3.25842,1.56992
1242,23981,3.30664,1.59131
1251,24192,3.3599,1.6124
1260,24393,3.41729,1.63252
1269,24602,3.49663,1.65342
1278,24815,3.55037,1.67471
1287,25025,3.60211,1.6957
1296,25230,3.65446,1.71621
1305,25435,3.70545,1.73672
1314,25622,3.73734,1.75537
1323,25803,2.71213,1.77354
1332,25981,1.00854,1.79131
1341,26182,0.307941,1.81143
1350,26370,0.259265,1.83027
1359,26606,0.218221,1.85381
1368,26795,0.202665,1.87275
1377,26987,0.193713,1.89189
1386,27192,0.185479,1.9124
1395,27470,0.17423,1.94023
1404,27693,0.167933,1.9625
1413,27917,0.160883,1.98496
1422,28142,0.150748,2.00742
1431,28422,0.140937,2.03545
1440,28647,0.134505,2.05791
1449,28911,0.125091,2.08428
1458,29130,0.119374,2.10615
1467,29407,0.112714,2.13389
1476,29628,0.109061,2.15596
1485,29850,0.104347,2.17822
1494,30068,0.102551,2.2
1503,30291,0.101641,2.22227
1512,30553,0.10102,2.24844
1521,30772,0.100843,2.27041
1530,30996,0.100678,2.29277
1539,31214,0.100616,2.31465
1548,31495,0.100584,2.34268
1557,31718,0.100566,2.36494
1566,31944,0.100456,2.3876
1575,32166,0.100407,2.40986
1584,32397,0.100376,2.43281
1593,32667,0.100367,2.45986
1602,32898,0.100371,2.48291
1611,33190,0.100372,2.51211
1620,33418,0.10033,2.53496
1629,33688,0.100276,2.56191
1638,33919,0.100263,2.58506
1647,34146,0.100239,2.60771
1656,34372,0.100244,2.63037
1665,34690,0.100278,2.66211
1674,34913,0.100264,2.68447
1683,35138,0.100252,2.70693
1692,35364,0.100207,2.72959
1701,35643,0.100172,2.75752
1710,35876,0.100189,2.78076
1719,36106,0.100168,2.80381
1728,36330,0.100126,2.82617
1737,36554,0.100124,2.84854
1746,36832,0.100155,2.87637
1755,37064,0.100175,2.89951
1764,37297,0.100176,2.92285
1773,37528,0.100188,2.946
1782,37815,0.100171,2.97461
1791,38048,0.100167,2.99795
1800,38282,0.100155,3.02139
1809,38514,0.100155,3.04453
1818,38793,0.100164,3.07246
1827,39029,0.100163,3.096
1836,39265,0.100192,3.11963
1845,39545,0.100171,3.14756
1854,39827,0.100118,3.17578
1863,40079,0.100166,3.20107
1872,40308,0.100194,3.22393
1881,40539,0.10019,3.24707
1890,40779,0.100199,3.271
1899,41073,0.100238,3.30039
1908,41306,0.100274,3.32373
1917,41543,0.100273,3.34746
1926,41778,0.100265,3.371
1935,42071,0.10026,3.40029
1944,42308,0.100257,3.42393
1953,42552,0.100265,3.44824
1962,42791,0.100278,3.47227
1971,43094,0.100282,3.50254
1980,43346,0.100251,3.52764
1989,43584,0.100231,3.55156
1998,43830,0.100268,3.57617
2007,44068,0.100259,3.5999
2016,44374,0.100306,3.63047
2025,44617,0.100313,3.65479
2034,44860,0.10032,3.6791
2043,45104,0.100327,3.70352
2052,45400,0.100309,3.73311
2061,45649,0.100322,3.75791
2070,45896,0.100348,3.78271
2079,46151,0.100363,3.8082
2088,46447,0.100352,3.83779
2097,46690,0.10034,3.86211
2106,46933,0.100398,3.88643
2115,47169,0.1004,3.90996
2124,47458,0.100394,3.93896
2133,47699,0.100412,3.96299
2142,47943,0.100417,3.9875
2151,48187,0.100422,4.01182
2160,48437,0.100427,4.03672
2169,48775,0.100456,4.07061
2178,49028,0.100444,4.0959
2187,49294,0.100352,4.12246
2196,49630,0.100335,4.15615
2205,49883,0.100391,4.18135
2214,50147,0.100437,4.20771
2223,50433,0.100446,4.23633
2232,50700,0.100469,4.26299
2241,50995,0.10047,4.29258
2250,51241,0.10046,4.31719
2259,51496,0.100465,4.34268
2268,51795,0.100484,4.37256
2277,52048,0.100493,4.39795
2286,52310,0.100509,4.42402
2295,52563,0.100514,4.44932
2304,52814,0.100514,4.47451
2313,53140,0.100526,4.50703
2322,53399,0.100517,4.53301
2331,53661,0.100526,4.55918
2340,53924,0.100544,4.58545
2349,54307,0.100579,4.62373
2358,54537,0.100566,4.64678
2367,54770,0.100558,4.67012
2376,55017,0.100555,4.69473
2385,55318,0.100553,4.7248
2394,55551,0.100564,4.74814
2403,55797,0.100571,4.77275
2412,56216,0.100615,4.81465
2421,56604,0.100591,4.85342
2430,56860,0.100607,4.8791
2439,57151,0.100623,4.90811
2448,57406,0.100648,4.93369
2457,57665,0.100627,4.95957
2466,57927,0.100637,4.98574
2475,58179,0.100668,5.0

File: 04.06.25_WT_dry_idx1.csv
,Time,Force (Newtons),Distance (millimeters)
0,1,-0.0308313,0.0
9,120,-0.0307156,0.0
18,241,-0.0305116,0.0
27,361,-0.0304234,0.0
36,484,-0.0303429,0.0
45,602,-0.0302576,0.0
54,723,-0.0300978,0.0
63,843,-0.0300233,0.0
72,959,-0.0299615,0.0
81,1081,-0.0298938,0.0
90,1203,-0.0297761,0.0
99,1325,-0.0297153,0.0
108,1451,-0.0296594,0.0
117,1580,-0.0295359,0.0
126,1703,-0.0294809,0.0
135,1909,-0.0293937,0.0
144,2031,-0.0293554,0.0
153,2159,-0.0292524,0.0
162,2281,-0.0291995,0.0
171,2409,-0.0291475,0.0
180,2527,-0.0290691,0.0
189,2660,-0.0290249,0.0
198,2786,-0.0289828,0.0
207,2905,-0.0289043,0.0
216,3029,-0.028867,0.0
225,3153,-0.0288268,0.0
234,3271,-0.0287876,0.0
243,3395,-0.0287043,0.0
252,3518,-0.0286719,0.0
261,3647,-0.0286297,0.0
270,3771,-0.0285542,0.0
279,3897,-0.0285081,0.0
288,4032,-0.0284689,0.0
297,4167,-0.0283963,0.0
306,4290,-0.0283659,0.0
315,4415,-0.0283061,0.0
324,4548,-0.0282669,0.0
333,4678,-0.0282306,0.0
342,4800,-0.0281521,0.0
351,4932,-0.02811,0.0
360,5065,-0.0280756,0.0
369,5198,-0.0280198,0.0
378,5331,-0.0280021,0.0
387,5465,-0.0279403,0.0
396,5596,-0.027905,0.0
405,5722,-0.0278648,0.0
414,5858,-0.0278187,0.0
423,5989,-0.0277922,0.0
432,6117,-0.0277628,0.0
441,6248,-0.0276853,0.0
450,6378,-0.0276628,0.0
459,6507,-0.0276461,0.0
468,6634,-0.0275922,0.0
477,6768,-0.0275667,0.0
486,6902,-0.0275216,0.0
495,7036,-0.027498,0.0
504,7208,-0.0274559,0.000292969
513,7389,-0.0275892,0.001953125
522,7569,-0.0277187,0.00488281
531,7739,-0.0273186,0.00898438
540,7960,-0.0184524,0.0162109
549,8141,0.0115373,0.0236328
558,8339,0.0646129,0.0333984
567,8534,0.115678,0.0447266
576,8765,0.151758,0.06015625
585,8957,0.194122,0.0748047
594,9141,0.271964,0.0902344
603,9320,0.365876,0.106738
612,9614,0.471543,0.136035
621,9798,0.557624,0.154395
630,9992,0.644751,0.173828
639,10238,0.735214,0.19834
648,10424,0.785114,0.216895
657,10611,0.828067,0.235645
666,10794,0.86501,0.253906
675,11032,0.90314,0.277734
684,11211,0.948145,0.295605
693,11398,0.996438,0.314355
702,11581,1.04004,0.332715
711,11763,1.07745,0.350879
720,12006,1.11115,0.375195
729,12192,1.1406,0.393848
738,12380,1.17145,0.412598
747,12573,1.20356,0.431836
756,12815,1.24623,0.456055
765,13002,1.27608,0.474805
774,13189,1.30477,0.493359
783,13379,1.33314,0.512402
792,13626,1.35821,0.537207
801,13872,1.39297,0.561816
810,14065,1.41805,0.581055
819,14247,1.44559,0.599219
828,14441,1.47466,0.618652
837,14690,1.50994,0.643555
846,14883,1.53221,0.662891
855,15077,1.55476,0.682227
864,15275,1.58183,0.702051
873,15523,1.61419,0.726855
882,15723,1.643,0.746777
891,15922,1.68256,0.766699
900,16114,1.7038,0.785938
909,16315,1.72443,0.805957
918,16575,1.74646,0.832031
927,16773,1.76514,0.851855
936,17029,1.7964,0.877441
945,17228,1.82053,0.897363
954,17543,1.87987,0.928809
963,17752,1.90951,0.949707
972,17945,1.9391,0.969043
981,18147,1.96709,0.98916
990,18345,1.99895,1.00898
999,18606,2.05315,1.03506
1008,18800,2.08693,1.05449
1017,18998,2.12247,1.07441
1026,19210,2.15607,1.09551
1035,19470,2.21318,1.12148
1044,19674,2.25213,1.14189
1053,19882,2.28914,1.1627
1062,20091,2.32713,1.18369
1071,20355,2.38658,1.21006
1080,20567,2.43196,1.23115
1089,20776,2.4919,1.25215
1098,20975,2.5332,1.27207
1107,21179,2.57462,1.29238
1116,21448,2.64515,1.31934
1125,21653,2.69141,1.33984
1134,21859,2.73626,1.36045
1143,22069,2.78247,1.38135
1152,22330,2.84985,1.40742
1161,22537,2.90024,1.42822
1170,22737,2.94869,1.44814
1179,22940,2.99508,1.46846
1188,23147,3.06451,1.48916
1197,23416,3.1136,1.51611
1206,23623,3.19204,1.53682
1215,23830,3.23882,1.55752
1224,24038,3.28515,1.57822
1233,24305,3.35156,1.60498
1242,24514,3.40097,1.62588
1251,24727,3.44758,1.64717
1260,24937,3.4927,1.66816
1269,25192,3.56328,1.69365
1278,25409,3.6106,1.71543
1287,25622,3.68467,1.73672
1296,25834,3.73086,1.75791
1305,26046,3.77779,1.7791
1314,26337,3.84157,1.8082
1323,26550,3.88765,1.82949
1332,26765,3.94756,1.85098
1341,26983,3.98264,1.87275
1350,27250,4.02709,1.89941
1359,27475,4.06076,1.92197
1368,27698,4.08914,1.94424
1377,27924,4.12293,1.9668
1386,28142,4.13741,1.98867
1395,28413,4.15364,2.01582
1404,28636,4.15845,2.03809
1413,28861,4.15478,2.06055
1422,29085,4.14766,2.08301
1431,29366,4.12575,2.11104
1440,29588,4.10575,2.1333
1449,29812,4.05702,2.15566
1458,30031,4.01208,2.17764
1467,30321,3.9263,2.20654
1476,30539,3.86951,2.22832
1485,30766,3.77677,2.25107
1494,30989,3.71874,2.27334
1503,31211,3.65587,2.29561
1512,31507,3.55469,2.3251
1521,31726,3.44891,2.34707
1530,31942,3.3797,2.36865
1539,32176,3.31171,2.39209
1548,32465,3.22375,2.421
1557,32690,3.1471,2.44346
1566,32915,3.10118,2.46592
1575,33139,3.04306,2.48828
1584,33362,3.0054,2.51055
1593,33643,2.95465,2.53867
1602,33865,2.92019,2.56094
1611,34096,2.87021,2.58398
1620,34317,2.83751,2.60615
1629,34610,2.78538,2.63545
1638,34828,2.7393,2.65732
1647,35062,2.67054,2.68066
1656,35289,2.63104,2.70342
1665,35563,2.57968,2.73076
1674,35790,2.54552,2.75352
1683,36027,2.49581,2.77715
1692,36256,2.46267,2.8001
1701,36537,2.4199,2.828125
1710,36815,2.37592,2.85596
1719,37039,2.33478,2.87832
1728,37264,2.31206,2.90088
1737,37490,2.29406,2.92344
1746,37791,2.25505,2.95352
1755,38023,2.23674,2.97666
1764,38257,2.21586,3.0002
1773,38490,2.19091,3.02344
1782,38792,2.16245,3.05361
1791,39028,2.13825,3.07715
1800,39266,2.12979,3.10098
1809,39495,2.12531,3.12393
1818,39735,2.10812,3.14795
1827,40028,2.08771,3.17725
1836,40261,2.07586,3.20049
1845,40492,2.06412,3.22363
1854,40728,2.05208,3.24727
1863,41109,2.02016,3.28535
1872,41346,1.99363,3.30898
1881,41588,1.98592,3.3332
1890,41811,1.97871,3.35557
1899,42036,1.97509,3.37803
1908,42312,1.96413,3.40557
1917,42539,1.95613,3.42832
1926,42761,1.93217,3.45059
1935,42985,1.91379,3.47295
1944,43294,1.88299,3.50381
1953,43527,1.86246,3.52715
1962,43774,1.8328,3.56572
1971,44007,1.81775,3.58906
1980,44321,1.79754,3.62041
1989,44566,1.78582,3.64492
1998,44806,1.76798,3.66895
2007,45052,1.75514,3.69355
2016,45302,1.74203,3.71855
2025,45608,1.72781,3.74912
2034,45849,1.71158,3.77324
2043,46090,1.70125,3.79727
2052,46333,1.69205,3.82158
2061,46641,1.68097,3.85244
2070,46887,1.66873,3.87695
2079,47128,1.66098,3.90117
2088,47371,1.65483,3.92539
2097,47613,1.65194,3.94961
2106,47982,1.64653,3.98652
2115,48225,1.62992,4.01084
2124,48474,1.61569,4.03574
2133,48723,1.59222,4.06064
2142,49037,1.57177,4.09199
2151,49279,1.55701,4.11631
2160,49535,1.54478,4.1418
2169,49786,1.5229,4.16689
2178,50089,1.50373,4.19727
2187,50333,1.48245,4.22158
2196,50583,1.46025,4.24668
2205,50834,1.43069,4.27168
2214,51086,1.40911,4.296875
2223,51384,1.39414,4.32666
2232,51636,1.37924,4.35195
2241,51878,1.36975,4.37607
2250,52133,1.35303,4.40156
2259,52444,1.33945,4.43271
2268,52700,1.32745,4.4583
2277,52952,1.32231,4.4835
2286,53205,1.31353,4.50879
2295,53510,1.29872,4.53926
2304,53759,1.27499,4.56416
2313,54012,1.25289,4.58955
2322,54265,1.23943,4.61484
2331,54528,1.22024,4.64111
2340,54836,1.19835,4.671875
2349,55087,1.17768,4.69697
2358,55336,1.16813,4.721875
2367,55592,1.15596,4.74746
2376,55904,1.15056,4.77861
2385,56159,1.14715,4.8042
2394,56417,1.14376,4.82998
2403,56669,1.13748,4.85527
2412,56921,1.13249,4.88037
2421,57222,1.12686,4.91055
2430,57478,1.11804,4.93613
2439,57733,1.11189,4.96162
2448,57991,1.10987,4.9874
2454,58221,1.10456,5.0

File: 04.06.25_WT_dry_idx2.csv
,Time,Force (Newtons),Distance (millimeters)
0,1,0.0523488,0.0
9,132,0.0498265,0.0
18,267,0.0487458,0.0
27,397,0.0468453,0.0
36,525,0.045995,0.0
45,657,0.0452174,0.0
54,791,0.0437797,0.0
63,928,0.0431305,0.0
72,1058,0.0424941,0.0
81,1199,0.0413016,0.0
90,1364,0.0401562,0.0
99,1492,0.0396237,0.0
108,1623,0.0391019,0.0
117,1751,0.0381193,0.0
126,1880,0.037626,0.0
135,2011,0.0371749,0.0
144,2141,0.0363149,0.0
153,2264,0.035905,0.0
162,2386,0.0354745,0.0
171,2513,0.0346291,0.0
180,2635,0.0342398,0.0
189,2764,0.0338613,0.0
198,2885,0.0330954,0.0
207,3010,0.0327188,0.0
216,3142,0.032351,0.0
225,3265,0.0316862,0.0
234,3475,0.0310448,0.0
243,3598,0.0307173,0.0
252,3718,0.0304329,0.0
261,3837,0.0298092,0.0
270,3960,0.0295091,0.0
279,4091,0.0291786,0.0
288,4218,0.0286,0.0
297,4342,0.0283097,0.0
306,4465,0.0280283,0.0
315,4588,0.0274497,0.0
324,4715,0.0271604,0.0
333,4849,0.0268848,0.0
342,4981,0.0263543,0.0
351,5106,0.0260915,0.0
360,5230,0.0258375,0.0
369,5359,0.0253324,0.0
378,5493,0.0250892,0.0
387,5614,0.0248401,0.0
396,5738,0.0243576,0.0
405,5864,0.0241174,0.0
414,5998,0.023881,0.0
423,6128,0.0234496,0.0
432,6251,0.0232318,0.0
441,6372,0.02302,0.0
450,6491,0.0225611,0.0
459,6625,0.0223522,0.0
468,6749,0.0221306,0.0
477,6882,0.0216932,0.0
486,7019,0.0214735,0.0
495,7151,0.0210744,0.0
504,7326,0.0208724,0.000390625
513,7528,0.0225199,0.00224609
522,7767,0.0288677,0.00673828
531,7948,0.0433718,0.0118164
540,8129,0.0713482,0.0182617
549,8313,0.115101,0.0262695
558,8550,0.168455,0.0387695
567,8738,0.196111,0.0503906
576,8920,0.205802,0.0630859
585,9104,0.257157,0.0774414
594,9348,0.389975,0.0985352
603,9540,0.476453,0.11709
612,9732,0.563187,0.13623
621,9916,0.656162,0.1546875
630,10096,0.748039,0.172656
639,10328,0.833474,0.195898
648,10512,0.914223,0.214355
657,10695,0.988071,0.232617
666,10883,1.055,0.251465
675,11122,1.11866,0.275293
684,11312,1.17638,0.294336
693,11568,1.25117,0.319922
702,11755,1.29095,0.338574
711,11942,1.32936,0.357227
720,12179,1.36478,0.381055
729,12364,1.39407,0.399414
738,12560,1.42397,0.419043
747,12751,1.45269,0.438281
756,12985,1.49167,0.461621
765,13177,1.51769,0.480762
774,13366,1.54665,0.499707
783,13559,1.57843,0.518945
792,13849,1.6192,0.547949
801,14035,1.64691,0.566602
810,14227,1.6744,0.585742
819,14419,1.7029,0.60498
828,14613,1.73308,0.624316
837,14861,1.77021,0.649219
846,15049,1.7946,0.667969
855,15239,1.81623,0.686914
864,15434,1.8386,0.706543
873,15689,1.86272,0.732031
882,15885,1.88593,0.751562
891,16081,1.9105,0.771191
900,16277,1.93415,0.790723
909,16474,1.97299,0.810547
918,16720,1.99977,0.835059
927,16919,2.02459,0.85498
936,17122,2.04871,0.875293
945,17326,2.08159,0.895605
954,17583,2.09855,0.921387
963,17782,2.08795,0.941309
972,17983,2.09116,0.961328
981,18191,2.14285,0.982227
990,18455,2.17372,1.00859
999,18662,2.21891,1.0293
1008,18857,2.24531,1.04883
1017,19062,2.27006,1.06924
1026,19267,2.29245,1.08975
1035,19520,2.33453,1.11504
1044,19729,2.36339,1.13604
1053,19933,2.39214,1.15635
1062,20147,2.42375,1.17773
1071,20404,2.47009,1.20342
1080,20614,2.50681,1.22441
1089,20823,2.53938,1.24541
1098,21028,2.56961,1.26582
1107,21223,2.60231,1.28535
1116,21490,2.65285,1.31211
1125,21706,2.71052,1.33359
1134,21912,2.7463,1.3542
1143,22117,2.78202,1.37471
1152,22380,2.83144,1.40107
1161,22646,2.87055,1.42764
1170,22854,2.92927,1.44844
1179,23115,2.97027,1.47451
1188,23324,3.02673,1.49541
1197,23601,3.06761,1.52314
1206,23807,3.12607,1.54375
1215,24018,3.16228,1.56484
1224,24231,3.19881,1.58613
1233,24493,3.26146,1.6124
1242,24705,3.3065,1.6335
1251,24917,3.34393,1.65479
1260,25138,3.37336,1.67686
1269,25409,3.42147,1.704
1278,25620,3.47039,1.7251
1287,25835,3.51538,1.74658
1296,26050,3.55826,1.76807
1305,26264,3.60041,1.78945
1314,26541,3.65806,1.81719
1323,26762,3.63592,1.83926
1332,26988,3.64241,1.86182
1341,27209,3.70397,1.88389
1350,27495,3.78924,1.9125
1359,27713,3.87226,1.93438
1368,27936,3.91894,1.95664
1377,28151,3.6941,1.978125
1386,28369,2.66546,2.0
1395,28651,2.74259,2.028125
1404,28865,2.88586,2.04961
1413,29081,3.01399,2.07119
1422,29308,3.13003,2.09385
1431,29618,3.34514,2.1248
1440,29838,3.43059,2.146875
1449,30067,3.07984,2.16973
1458,30292,2.39639,2.19219
1467,30518,2.51436,2.21484
1476,30801,2.7256,2.24307
1485,31024,2.90991,2.26543
1494,31251,3.01647,2.28809
1503,31472,3.07008,2.31025
1512,31751,3.15107,2.33809
1521,31976,3.31399,2.36064
1530,32198,3.41627,2.38281
1539,32423,3.5144,2.40527
1548,32705,3.65512,2.4335
1557,32933,3.75079,2.45625
1566,33207,3.25356,2.48369
1575,33436,2.57767,2.50654
1584,33669,2.71637,2.52998
1593,33952,2.87878,2.5582
1602,34186,3.0692,2.58154
1611,34418,3.19406,2.60479
1620,34646,3.37391,2.62754
1629,34922,3.53644,2.65527
1638,35153,3.63981,2.67832
1647,35388,3.73707,2.70186
1656,35624,3.87629,2.72539
1665,35853,3.95818,2.74834
1674,36139,4.06841,2.77695
1683,36377,4.14694,2.80068
1692,36605,3.48694,2.82344
1701,36835,2.25563,2.84648
1710,37121,2.47289,2.8752
1719,37355,2.61684,2.89854
1728,37587,2.81476,2.92178
1737,37819,2.93545,2.94492
1746,38067,3.07858,2.96973
1755,38368,2.92906,2.99971
1764,38605,2.62806,3.02354
1773,38835,2.6461,3.04658
1782,39073,2.80081,3.07031
1791,39361,3.00528,3.09912
1800,39685,2.99232,3.13145
1809,40055,2.61928,3.16855
1818,40282,2.74971,3.19131
1827,40569,2.54637,3.21885
1836,40794,2.63118,3.24248
1845,41016,2.84285,3.26465
1854,41288,2.93544,3.2918
1863,41526,3.04503,3.315625
1872,41838,3.22069,3.34678
1881,42084,3.38918,3.37139
1890,42327,3.49462,3.3957
1899,42570,3.64851,3.41992
1908,42869,3.78557,3.4498
1917,43115,3.90459,3.47441
1926,43364,3.9751,3.49941
1935,43611,4.07212,3.52402
1944,43855,4.12361,3.54844
1953,44154,4.18342,3.57832
1962,44438,4.07189,3.60674
1971,44691,3.35491,3.63203
1980,44931,2.7836,3.65615
1989,45238,2.99126,3.68682
1998,45486,3.15822,3.71152
2007,45723,3.25709,3.73535
2016,45970,3.38312,3.75996
2025,46267,3.48841,3.78965
2034,46522,3.54664,3.81514
2043,46767,3.62151,3.83965
2052,47012,3.6696,3.86416
2061,47261,3.68728,3.88906
2070,47568,3.69604,3.91973
2079,47812,3.68223,3.94414
2088,48062,3.64093,3.96914
2097,48370,3.57374,3.9999
2106,48625,3.51494,4.02549
2115,48881,3.47503,4.05107
2124,49132,3.41457,4.07617
2133,49374,3.37757,4.10039
2142,49625,3.3262,4.12539
2151,49919,3.26469,4.15488
2160,50172,3.20217,4.18018
2169,50412,3.16473,4.2042
2178,50671,3.11384,4.23008
2187,50923,3.065,4.25527
2196,51174,3.03704,4.28037
2205,51436,2.99552,4.30654
2214,51686,2.96384,4.33154
2223,51926,2.93955,4.35557
2232,52183,2.89033,4.38125
2241,52433,2.83857,4.40625
2250,52679,2.81336,4.43076
2259,52929,2.77683,4.45586
2268,53175,2.75481,4.48047
2277,53473,2.70902,4.51016
2286,53728,2.68934,4.53574
2295,53978,2.66021,4.56074
2304,54228,2.64444,4.58574
2313,54484,2.61862,4.61143
2322,54739,2.59535,4.63682
2331,55005,2.57626,4.66338
2340,55268,2.56648,4.68975
2349,55525,2.55365,4.71543
2358,55788,2.53609,4.7417
2367,56039,2.52073,4.76689
2376,56292,2.50058,4.79209
2385,56548,2.47556,4.81768
2394,56804,2.44686,4.84326
2403,57055,2.4265,4.86846
2412,57376,2.39061,4.90059
2421,57622,2.37634,4.9251
2430,57868,2.34394,4.94971
2439,58130,2.32399,4.97598
2448,58386,2.30062,4.99814
2451,58471,2.29401,5.0