Folder: cellulose_origami/tensile_tests (part 3)

File: 04.03.25_WT_idx1_already_stressed.csv
,Time,Force (Newtons),Distance (millimeters)
0,3,0.000101611,0.0
8,118,0.000140837,0.0
16,235,9.08233e-05,0.0
24,351,-1.41078e-05,0.0
32,463,-0.000113155,0.0
40,572,-9.15804e-05,0.0
48,689,-0.000113155,0.0
56,803,-0.000190628,0.0
64,917,-0.000196512,0.0
72,1027,-0.000213183,0.0
80,1135,-0.00022397,0.0
88,1250,-0.0002681,0.0
96,1365,-0.000251429,0.0
104,1477,-0.000218086,0.0
112,1590,-0.000157285,0.0
120,1702,-0.000245545,0.0
128,1809,-0.000339689,0.0
136,2012,-0.000433832,0.0
144,2119,-0.000450504,0.0
152,2230,-0.000422064,0.0
160,2352,-0.000157285,0.0
168,2465,-7.49091e-05,0.0
176,2583,-1.99918e-05,0.0
184,2689,-4.74505e-05,0.0
192,2799,-7.49091e-05,0.0
200,2907,-7.49091e-05,0.0
208,3013,-0.000108252,0.0
216,3125,-0.000173956,0.0
224,3232,-0.00017984,0.0
232,3345,-0.000184744,0.0
240,3456,-0.000240641,0.0
248,3563,-0.000190628,0.0
256,3680,1.33508e-05,0.0
264,3794,9.08233e-05,0.0
272,3902,0.000101611,0.0
280,4013,7.4152e-05,0.0
288,4121,6.8268e-05,0.0
296,4230,0.000113379,0.0
304,4342,0.000179083,0.0
312,4455,5.74807e-05,0.0
320,4575,3.59061e-05,0.0
328,4686,-7.98124e-05,0.0
336,4802,-0.000129826,0.0
344,4915,-6.90251e-05,0.0
352,5023,4.08094e-05,0.0
360,5127,0.000118282,0.0
368,5237,0.000162412,0.0
376,5353,7.4152e-05,0.0
384,5471,1.33508e-05,0.0
392,5591,5.25774e-05,0.0
400,5712,0.000124166,0.0
408,5821,0.00018987,0.0
416,5925,0.000184967,0.0
424,6033,0.000107495,0.0
432,6142,0.000124166,0.0
440,6260,0.000338932,0.0
448,6376,0.000372274,0.0
456,6491,0.000305589,0.0
464,6606,0.000201638,0.0
472,6721,0.000223213,0.0
480,6834,0.000571349,0.0
488,6955,0.000703739,0.0
496,7074,0.000691971,0.0
504,7240,0.000609595,0.000390625
512,7459,0.000990093,0.00244141
520,7627,0.00278961,0.00556641
528,7797,0.00826467,0.00986328
536,7957,0.0129493,0.0150391
544,8117,0.0277456,0.0212891
552,8280,0.0497321,0.02890625
560,8442,0.0770171,0.0375977
568,8604,0.0928951,0.0473633
576,8771,0.13342,0.05859375
584,8937,0.184916,0.0709961
592,9100,0.215507,0.0842773
600,9267,0.290761,0.0991211
608,9429,0.389967,0.114648
616,9650,0.509571,0.136816
624,9816,0.656416,0.153418
632,10008,0.829259,0.172559
640,10176,1.01631,0.189355
648,10340,1.20143,0.205762
656,10552,1.29289,0.226953
664,10723,1.34592,0.244043
672,10895,1.39256,0.261328
680,11059,1.51504,0.277734
688,11224,1.70578,0.294141
696,11453,1.93392,0.31709
704,11625,2.14404,0.334277
712,11796,2.34318,0.351367
720,11961,2.54732,0.367969
728,12183,2.74627,0.390039
736,12360,2.94892,0.407812
744,12540,3.15811,0.425781
752,12720,3.36107,0.443848
760,12892,3.45598,0.461035
768,13150,3.74271,0.486816
776,13340,3.93036,0.505762
784,13538,4.11834,0.525586
792,13815,4.36333,0.55332
800,13990,4.51998,0.570801
808,14164,4.66422,0.588184
816,14334,4.73265,0.605273
824,14500,4.87434,0.621777
832,14712,5.00404,0.642969
840,14897,5.12822,0.661523
848,15078,5.2453,0.6796875
856,15263,5.35253,0.698145
864,15490,5.50828,0.720801
872,15678,5.6085,0.739551
880,15863,5.69847,0.758105
888,16045,5.73768,0.77627
896,16234,5.81658,0.795117
904,16493,5.95644,0.821094
912,16670,6.03431,0.838867
920,16879,6.10646,0.859766
928,17054,6.17302,0.877246
936,17296,6.28523,0.901465
944,17575,6.40736,0.929199
952,17767,6.47845,0.948535
960,17959,6.55282,0.967676
968,18135,6.58508,0.985254
976,18322,6.66229,1.004
984,18562,6.77501,1.02803
992,18748,6.84595,1.04658
1000,18934,6.91173,1.06523
1008,19123,6.95999,1.08418
1016,19371,7.02423,1.10889
1024,19549,7.10152,1.12666
1032,19736,7.16465,1.14541
1040,19916,7.22219,1.16338
1048,20100,7.28086,1.18184
1056,20331,7.35135,1.20488
1064,20513,7.42215,1.22314
1072,20692,7.47146,1.24102
1080,20875,7.48998,1.25928
1088,21060,7.52693,1.27783
1096,21292,7.64447,1.30098
1104,21473,7.68881,1.31904
1112,21662,7.75967,1.33799
1120,21844,7.827,1.35615
1128,22076,7.92374,1.37939
1136,22260,7.97631,1.39775
1144,22441,8.03327,1.41582
1152,22621,8.09635,1.43379
1160,22850,8.16253,1.45674
1168,23086,8.22534,1.48037
1176,23275,8.28385,1.49932
1184,23466,8.34454,1.51836
1192,23650,8.39355,1.53672
1200,23886,8.44359,1.56035
1208,24073,8.47586,1.5791
1216,24265,8.50094,1.59824
1224,24451,8.53743,1.6168
1232,24644,8.59456,1.63623
1240,24884,8.65531,1.66025
1248,25078,8.71196,1.6792
1256,25262,8.74908,1.69805
1264,25486,8.82336,1.72041
1272,25681,8.8815,1.73984
1280,25929,8.92485,1.76465
1288,26129,8.9545,1.78467
1296,26329,8.98338,1.80459
1304,26528,9.03931,1.82422
1312,26728,9.08901,1.84424
1320,26970,9.14847,1.86875
1328,27161,9.19146,1.88789
1336,27356,9.2346,1.90732
1344,27550,9.27759,1.92676
1352,27751,9.31271,1.94688
1360,28003,8.98321,1.97207
1368,28202,8.1764,1.99189
1376,28402,7.14558,2.01201
1384,28602,4.98816,2.03193
1392,28853,2.55474,2.05703
1400,29052,1.7147,2.07695
1408,29251,1.21497,2.096875
1416,29453,0.955347,2.11709
1424,29652,0.828144,2.13691
1432,29904,0.700428,2.16211
1440,30103,0.565487,2.18203
1448,30303,0.442308,2.20205
1456,30508,0.359078,2.22256
1464,30706,0.311716,2.24229
1472,30961,0.279734,2.26787
1480,31157,0.269558,2.2874
1488,31360,0.259884,2.30771
1496,31556,0.242405,2.32734
1504,31803,0.209464,2.35205
1512,32013,0.192973,2.37305
1520,32214,0.179717,2.39316
1528,32414,0.172041,2.41318
1536,32616,0.161008,2.4333
1544,32882,0.153735,2.45996
1552,33082,0.148513,2.47998
1560,33284,0.127498,2.5001
1568,33482,0.112747,2.51992
1576,33711,0.100462,2.54277
1584,33982,0.0871945,2.56992
1592,34185,0.084275,2.59033
1600,34390,0.0843849,2.61064
1608,34590,0.0816253,2.63066
1616,34793,0.0750195,2.65098
1624,35056,0.063027,2.67734
1632,35258,0.0549757,2.69756
1640,35458,0.051361,2.71758
1648,35665,0.0510511,2.73828
1656,35921,0.0501577,2.76377
1664,36132,0.0481983,2.78496
1672,36334,0.0456653,2.80518
1680,36540,0.0442247,2.82568
1688,36745,0.0414768,2.84629
1696,36996,0.0274749,2.87139
1704,37216,0.0174643,2.89326
1712,37421,0.0127728,2.91387
1720,37642,0.011189,2.93594
1728,37861,0.00493629,2.95781
1736,38139,-0.000306346,2.98564
1744,38347,-0.000610352,3.00645
1752,38569,-0.000543667,3.02861
1760,38772,-0.0021549,3.04883
1768,38990,-0.00703371,3.0708
1776,39246,-0.0131864,3.09639
1784,39448,-0.0137326,3.1165
1792,39667,-0.0136552,3.13848
1800,39889,-0.0139925,3.16064
1808,40160,-0.0141357,3.18779
1816,40370,-0.0141357,3.20869
1824,40586,-0.0141798,3.23037
1832,40794,-0.0140974,3.25117
1840,41017,-0.0142239,3.27344
1848,41287,-0.0143897,3.30039
1856,41496,-0.0143622,3.32139
1864,41717,-0.0142132,3.34346
1872,41951,-0.0141023,3.3668
1880,42263,-0.0142573,3.39805
1888,42493,-0.0143122,3.421
1896,42792,-0.0141739,3.45088
1904,43039,-0.0142024,3.47559
1912,43270,-0.0142465,3.49873
1920,43546,-0.014423,3.52637
1928,43797,-0.0143289,3.55137
1936,44042,-0.0145995,3.57588
1944,44268,-0.0146603,3.59854
1952,44501,-0.0145113,3.62178
1960,44797,-0.014781,3.65146
1968,45039,-0.0148035,3.67559
1976,45266,-0.0147653,3.69824
1984,45495,-0.0150301,3.72119
1992,45739,-0.0148859,3.74561
2000,46039,-0.0152007,3.77559
2008,46273,-0.0151566,3.79902
2016,46524,-0.0152115,3.82412
2024,46874,-0.015388,3.85918
2032,47170,-0.0153223,3.88867
2040,47441,-0.0153772,3.91416
2048,47792,-0.0153331,3.95088
2056,48043,-0.0155488,3.97607
2064,48291,-0.0157028,3.99922
2072,48574,-0.0160509,4.0291
2080,48824,-0.015996,4.0541
2088,49101,-0.0162167,4.08184
2096,49370,-0.0163216,4.10869
2104,49642,-0.0162931,4.13594
2112,49942,-0.0167129,4.16592
2120,50203,-0.0168119,4.19199
2128,50467,-0.0171659,4.21846
2136,50697,-0.0171659,4.24141
2144,51003,-0.0178995,4.27207
2152,51253,-0.0179103,4.29697
2160,51492,-0.0182309,4.3209
2168,51751,-0.0184349,4.34678
2176,52017,-0.0187664,4.37334
2184,52341,-0.0190361,4.4042
2192,52595,-0.0193234,4.43115
2200,52848,-0.0194058,4.45654
2208,53148,-0.0196598,4.48652
2216,53403,-0.0200736,4.51201
2224,53721,-0.0201011,4.54375
2232,53992,-0.020411,4.5709
2240,54248,-0.0207307,4.59648
2248,54521,-0.021018,4.62383
2256,54842,-0.0214593,4.65586
2264,55122,-0.0217682,4.68379
2272,55369,-0.021928,4.70859
2280,55642,-0.0221105,4.73584
2288,55899,-0.0224086,4.76152
2296,56242,-0.0223586,4.7959
2304,56500,-0.0224468,4.82168
2312,56770,-0.0227557,4.84873
2320,57018,-0.0227449,4.87344
2328,57270,-0.0229166,4.89873
2336,57592,-0.0228773,4.93086
2344,57849,-0.0231647,4.95664
2352,58118,-0.0230764,4.9835
2360,58391,-0.0234187,5.0

File: 04.03.25_WT_idx2.csv
,Time,Force (Newtons),Distance (millimeters)
0,3,0.000269636,0.0
9,153,0.000479498,0.0
18,272,0.000545203,0.0
27,406,0.000495189,0.0
36,543,0.000352012,0.0
45,678,0.00029121,0.0
54,812,0.000219622,0.0
63,939,0.000175492,0.0
72,1069,0.000148033,0.0
81,1201,0.000142149,0.0
90,1332,7.64448e-05,0.0
99,1458,-1.02774e-06,0.0
108,1588,-1.7699e-05,0.0
117,1718,0.000142149,0.0
126,1850,0.000330437,0.0
135,1978,0.000362799,0.0
144,2105,0.000219622,0.0
153,2235,0.000109787,0.0
162,2365,0.000114691,0.0
171,2497,0.000247081,0.0
180,2626,0.000352012,0.0
189,2762,0.000385354,0.0
198,2892,0.000462827,0.0
207,3025,0.000429484,0.0
216,3163,0.000446156,0.0
225,3293,0.000540299,0.0
234,3428,0.000589333,0.0
243,3549,0.000490285,0.0
252,3677,0.000324553,0.0
261,3798,0.000318669,0.0
270,3926,0.000479498,0.0
279,4050,0.000660921,0.0
288,4178,0.000666805,0.0
297,4300,0.000666805,0.0
306,4535,0.000815866,0.0
315,4660,0.000870783,0.0
324,4783,0.000815866,0.0
333,4907,0.000738394,0.0
342,5033,0.000616791,0.0
351,5156,0.000484401,0.0
360,5283,0.000391238,0.0
369,5410,0.00051186,0.0
378,5535,0.000639347,0.0
387,5663,0.000837441,0.0
396,5791,0.000826654,0.0
405,5912,0.000832538,0.0
414,6040,0.000561874,0.0
423,6161,0.000506957,0.0
432,6280,0.000584429,0.0
441,6406,0.000589333,0.0
450,6533,0.000567758,0.0
459,6661,0.000490285,0.0
468,6791,0.000551087,0.0
477,6913,0.000506957,0.0
486,7042,0.000456943,0.0
495,7178,0.000534415,0.0
504,7362,0.000611888,0.000390625
513,7544,0.000606004,0.00205078
522,7726,0.000716819,0.00517578
531,7908,0.00106397,0.00966797
540,8085,0.00189166,0.0154297
549,8269,0.00304001,0.0228516
558,8505,0.00429821,0.0344727
567,8698,0.00550639,0.0458008
576,8884,0.00686951,0.0582031
585,9068,0.00829932,0.0719727
594,9247,0.00953006,0.0867188
603,9433,0.0107716,0.103613
612,9621,0.0122563,0.12207
621,9813,0.0137244,0.141309
630,9997,0.0149659,0.159668
639,10179,0.0164231,0.177832
648,10372,0.0179795,0.197168
657,10559,0.0196289,0.215918
666,10756,0.0213294,0.235547
675,10952,0.0230672,0.255176
684,11148,0.0250873,0.274707
693,11337,0.0271958,0.293652
702,11522,0.0298112,0.312207
711,11712,0.0326757,0.331152
720,11910,0.035855,0.350977
729,12103,0.0395747,0.370215
738,12332,0.0459873,0.393262
747,12529,0.0515996,0.412891
756,12718,0.0577807,0.431738
765,12920,0.0646081,0.451855
774,13142,0.0725662,0.474121
783,13426,0.086324,0.502539
792,13635,0.097533,0.5234375
801,13823,0.109834,0.5421875
810,14017,0.123714,0.561719
819,14214,0.139228,0.581348
828,14513,0.176087,0.61123
837,14707,0.197203,0.630664
846,14914,0.220586,0.651367
855,15107,0.246977,0.670605
864,15297,0.276105,0.689648
873,15494,0.309312,0.709375
882,15686,0.346067,0.728516
891,15880,0.386178,0.747949
900,16080,0.430627,0.767969
909,16270,0.478226,0.786914
918,16471,0.530572,0.807031
927,16670,0.587808,0.826953
936,16913,0.676787,0.85127
945,17108,0.742224,0.870703
954,17306,0.810613,0.890527
963,17501,0.882264,0.910059
972,17745,0.99616,0.934473
981,17940,1.07576,0.953906
990,18133,1.15798,0.973145
999,18335,1.23654,0.993457
1008,18539,1.27716,1.01387
1017,18788,1.36725,1.03867
1026,19012,1.47722,1.06113
1035,19219,1.57708,1.08184
1044,19432,1.68099,1.103125
1053,19690,1.84077,1.12891
1062,19896,1.94604,1.14951
1071,20101,2.04774,1.17002
1080,20303,2.13427,1.19023
1089,20559,2.28396,1.21582
1098,20764,2.39458,1.23633
1107,20964,2.5043,1.25635
1116,21162,2.61758,1.27617
1125,21367,2.78319,1.29658
1134,21625,2.89746,1.32236
1143,21827,3.01155,1.34268
1152,22033,3.18054,1.36328
1161,22237,3.29301,1.38369
1170,22516,3.4687,1.41152
1179,22737,3.58293,1.43369
1188,22944,3.69113,1.4543
1197,23148,3.80097,1.47471
1206,23407,3.95512,1.50068
1215,23615,4.0696,1.52148
1224,23826,4.18141,1.54248
1233,24034,4.33654,1.56328
1242,24299,4.43239,1.58975
1251,24510,4.5739,1.61094
1260,24716,4.67343,1.63154
1269,24936,4.76766,1.65342
1278,25148,4.85926,1.67461
1287,25409,4.93874,1.70078
1296,25617,4.99194,1.72158
1305,25831,5.1501,1.74307
1314,26047,5.26492,1.76455
1323,26297,5.36918,1.78955
1332,26554,5.50581,1.81523
1341,26771,5.60238,1.83701
1350,26982,5.7499,1.85801
1359,27199,5.8424,1.87979
1368,27475,5.95468,1.90742
1377,27689,5.9893,1.92881
1386,27899,5.98012,1.9498
1395,28111,5.97454,1.971
1404,28382,5.92147,1.99805
1413,28596,5.91856,2.01943
1422,28809,5.94493,2.04072
1431,29026,5.93236,2.0625
1440,29247,5.90808,2.08457
1449,29522,6.00327,2.11211
1458,29736,6.12662,2.1334
1467,29951,6.18542,2.15488
1476,30177,6.20959,2.17754
1485,30459,6.21066,2.20576
1494,30673,6.16851,2.22715
1503,30889,6.07076,2.24873
1512,31098,6.05374,2.26963
1521,31369,6.08927,2.29678
1530,31587,6.07517,2.31855
1539,31798,5.976,2.33965
1548,32016,5.82193,2.36143
1557,32233,5.74119,2.38311
1566,32502,5.45428,2.41006
1575,32726,4.84992,2.43242
1584,32952,4.14523,2.45508
1593,33176,3.87911,2.47744
1602,33625,3.81207,2.52227
1611,33852,3.769,2.54502
1620,34074,3.76508,2.56729
1629,34292,3.73185,2.58906
1638,34568,3.55177,2.6166
1647,34826,3.39499,2.64248
1656,35051,3.12599,2.66494
1665,35277,2.70798,2.6875
1674,35501,2.45174,2.70986
1683,35771,2.07557,2.73691
1692,36000,1.77577,2.75977
1701,36227,1.09374,2.78252
1710,36447,0.592355,2.80449
1719,36734,0.324213,2.8333
1728,36959,0.300603,2.85576
1737,37186,0.288086,2.87842
1746,37411,0.28818,2.90088
1755,37702,0.286039,2.92998
1764,37926,0.27164,2.95244
1773,38152,0.267805,2.975
1782,38376,0.264963,2.99736
1791,38644,0.251585,3.02422
1800,38868,0.234521,3.04668
1809,39093,0.22398,3.06904
1818,39321,0.214411,3.09199
1827,39554,0.204973,3.11523
1836,39858,0.203212,3.14561
1845,40083,0.200658,3.16816
1854,40313,0.192705,3.19111
1863,40554,0.186055,3.21523
1872,40835,0.177103,3.24336
1881,41066,0.165066,3.26641
1890,41296,0.161115,3.28945
1899,41528,0.155563,3.3126
1908,41804,0.141518,3.34023
1917,42027,0.133698,3.3625
1926,42254,0.128389,3.38516
1935,42493,0.117119,3.40908
1944,42786,0.111286,3.43838
1953,43057,0.0969916,3.46553
1962,43292,0.080287,3.48896
1971,43524,0.059591,3.51221
1980,43754,0.0373947,3.53525
1989,44054,0.0297671,3.56523
1998,44286,0.0245686,3.58838
2007,44529,0.02049,3.6127
2016,44757,0.0198614,3.63555
2025,45050,0.0195132,3.66465
2034,45290,0.0187356,3.68877
2043,45530,0.0169527,3.71279
2052,45772,0.0170076,3.73691
2061,46004,0.01724,3.76025
2070,46294,0.0177255,3.78916
2079,46531,0.0177863,3.81289
2088,46764,0.0177363,3.83613
2097,47003,0.0150434,3.86006
2106,47293,0.00682048,3.88906
2115,47531,0.00477873,3.91289
2124,47771,0.00471205,3.93691
2133,48006,0.00475029,3.96035
2142,48299,0.00473362,3.98965
2151,48562,0.00477285,4.01602
2160,48799,0.00472872,4.03965
2169,49040,0.0048719,4.06377
2178,49282,0.00509843,4.08799
2187,49578,0.00504842,4.11758
2196,49825,0.0049327,4.14219
2205,50067,0.00480031,4.1665
2214,50313,0.00496604,4.19102
2223,50629,0.00485523,4.22266
2232,50881,0.00498762,4.24785
2241,51127,0.00495525,4.27246
2250,51372,0.00468459,4.29697
2259,51707,0.00490524,4.33037
2268,51953,0.00494937,4.35508
2277,52196,0.00485523,4.37939
2286,52447,0.00482777,4.40439
2295,52689,0.00503175,4.42861
2304,52975,0.0051151,4.45723
2313,53220,0.00503175,4.48174
2322,53460,0.00504842,4.50566
2331,53700,0.00514256,4.52969
2340,53985,0.00520336,4.5582
2349,54237,0.00500429,4.5834
2358,54484,0.00507097,4.6082
2367,54732,0.00541322,4.63291
2376,54978,0.00536321,4.65752
2385,55328,0.00546226,4.69258
2394,55575,0.00566722,4.71729
2403,55826,0.00563878,4.74229
2412,56075,0.00557307,4.76729
2421,56377,0.00559465,4.79746
2430,56621,0.00565545,4.82178
2439,56867,0.00576038,4.84648
2448,57112,0.00575548,4.8709
2457,57356,0.00576626,4.89531
2466,57662,0.00586041,4.92588
2475,57918,0.00576626,4.95146
2484,58170,0.00574959,4.97666
2493,58427,0.00594867,4.99854
2495,58486,0.00608106,5.0

File: 04.06.25_BslA_dry_idx0.csv
,Time,Force (Newtons),Distance (millimeters)
0,59,0.00253597,0.0
9,198,0.00231042,0.0
18,325,0.00208193,0.0
27,447,0.00198288,0.0
36,579,0.00187501,0.0
45,705,0.00171908,0.0
54,840,0.00165436,0.0
63,1004,0.00153079,0.0
72,1278,0.00130524,0.0
81,1400,0.00123463,0.0
90,1522,0.00118167,0.0
99,1646,0.00107969,0.0
108,1764,0.00103654,0.0
117,1885,0.0009826,0.0
126,2010,0.000887475,0.0
135,2132,0.000823732,0.0
144,2253,0.000752144,0.0
153,2377,0.000674671,0.0
162,2502,0.000543262,0.0
171,2627,0.000486383,0.0
180,2751,0.000429505,0.0
189,2873,0.000337322,0.0
198,2998,0.000307902,0.0
207,3123,0.00027456,0.0
216,3243,0.000242198,0.0
225,3369,0.000154919,0.0
234,3500,0.00011275,0.0
243,3632,6.83818e-06,0.0
252,3762,-4.31757e-05,0.0
261,3891,-8.6325e-05,0.0
270,4022,-0.000141242,0.0
279,4144,-0.000168701,0.0
288,4270,-0.000201063,0.0
297,4394,-0.000282458,0.0
306,4525,-0.000321685,0.0
315,4657,-0.000360911,0.0
324,4792,-0.000427596,0.0
333,4920,-0.000466823,0.0
342,5050,-0.000505069,0.0
351,5186,-0.000579599,0.0
360,5317,-0.00061,0.0
369,5440,-0.000660995,0.0
378,5568,-0.000694337,0.0
387,5691,-0.000722777,0.0
396,5817,-0.000800249,0.0
405,5946,-0.000833592,0.0
414,6079,-0.00087576,0.0
423,6209,-0.000947349,0.0
432,6342,-0.000983633,0.0
441,6470,-0.00101501,0.0
450,6599,-0.00106699,0.0
459,6731,-0.00109445,0.0
468,6859,-0.00112779,0.0
477,6988,-0.00121017,0.0
486,7122,-0.00124547,0.0
495,7258,-0.00131216,0.0
504,7517,-0.00137982,0.000878906
513,7704,-0.000758081,0.00332031
522,7881,0.00148666,0.00693359
531,8066,0.00725689,0.0121094
540,8248,0.019781,0.01875
549,8437,0.0419754,0.0270508
558,8630,0.0714581,0.037207
567,8886,0.121586,0.053125
576,9079,0.152855,0.0669922
585,9272,0.174432,0.0824219
594,9546,0.200929,0.107129
603,9733,0.219289,0.125684
612,9924,0.258978,0.144727
621,10111,0.321228,0.163477
630,10350,0.383802,0.187402
639,10542,0.442552,0.206543
648,10729,0.496689,0.225293
657,10911,0.545432,0.243457
666,11099,0.593344,0.262305
675,11346,0.65979,0.287012
684,11531,0.643396,0.305469
693,11719,0.569518,0.324316
702,11905,0.50646,0.342969
711,12135,0.465242,0.36582
720,12329,0.431493,0.385352
729,12518,0.255295,0.404199
738,12766,0.0261749,0.429004
747,12951,0.024648,0.447461
756,13197,0.0246323,0.47207
765,13385,0.0246176,0.490918
774,13568,0.0246137,0.50918
783,13752,0.0246088,0.527637
792,13940,0.0246098,0.546387
801,14180,0.0246245,0.5703125
810,14370,0.0246421,0.589355
819,14562,0.0246568,0.608594
828,14756,0.0246686,0.62793
837,15000,0.0246764,0.652344
846,15190,0.0246912,0.671387
855,15388,0.0246764,0.691113
864,15586,0.0246411,0.7109375
873,15780,0.0246411,0.730371
882,16027,0.0246784,0.755078
891,16223,0.0246921,0.774609
900,16421,0.0246755,0.794434
909,16612,0.0246715,0.813477
918,16857,0.0246931,0.838086
927,17056,0.0246823,0.858008
936,17248,0.0246706,0.877148
945,17444,0.0246706,0.896777
954,17637,0.0246774,0.916016
963,17888,0.0246735,0.941211
972,18085,0.0246666,0.9609375
981,18283,0.0246774,0.980664
990,18487,0.0246735,1.00107
999,18730,0.0246578,1.02529
1008,18940,0.0246588,1.04639
1017,19141,0.0246627,1.0665
1026,19342,0.0246637,1.08652
1035,19544,0.0246578,1.10674
1044,19811,0.0246715,1.1334
1053,20004,0.0246686,1.15273
1062,20216,0.0246578,1.17393
1071,20420,0.0246529,1.19434
1080,20627,0.0246735,1.21514
1089,20878,0.0246814,1.24014
1098,21084,0.0246686,1.26074
1107,21289,0.0246794,1.28125
1116,21490,0.0247078,1.30137
1125,21750,0.0246764,1.32734
1134,21956,0.0246696,1.34795
1143,22155,0.0246774,1.36777
1152,22359,0.0246931,1.38828
1161,22564,0.0246872,1.40879
1170,22820,0.0246755,1.434375
1179,23024,0.0246823,1.45479
1188,23230,0.0246774,1.47539
1197,23441,0.0246549,1.49639
1206,23700,0.0246529,1.52227
1215,23913,0.0246392,1.54365
1224,24124,0.0246313,1.56475
1233,24333,0.02465,1.58564
1242,24542,0.0246529,1.60654
1251,24806,0.0246402,1.63291
1260,25008,0.0246294,1.653125
1269,25217,0.0246117,1.67402
1278,25432,0.0246304,1.69561
1287,25716,0.024646,1.72393
1296,25925,0.0246666,1.74482
1305,26180,0.024648,1.77031
1314,26394,0.0246392,1.7917
1323,26666,0.0246411,1.81895
1332,26876,0.0246382,1.83984
1341,27081,0.0246323,1.86045
1350,27292,0.0246058,1.88154
1359,27502,0.0246245,1.90254
1368,27799,0.0246529,1.93223
1377,28027,0.0246608,1.95508
1386,28239,0.0246598,1.97617
1395,28454,0.0246715,1.99775
1404,28730,0.0246617,2.02539
1413,28946,0.0246451,2.04697
1422,29162,0.0246313,2.06855
1431,29376,0.024648,2.08994
1440,29592,0.0246519,2.11152
1449,29862,0.0246539,2.13848
1458,30078,0.0246598,2.16016
1467,30291,0.0246706,2.18145
1476,30569,0.0246539,2.20918
1485,30865,0.0246559,2.23877
1494,31061,0.0246666,2.2584
1503,31278,0.0246912,2.28018
1512,31510,0.0246804,2.30332
1521,31759,0.0246833,2.32822
1530,32038,0.0247049,2.35605
1539,32260,0.0247216,2.37832
1548,32483,0.0247167,2.40059
1557,32704,0.0247157,2.42266
1566,32980,0.0247294,2.45029
1575,33213,0.0247294,2.47363
1584,33435,0.0247363,2.4958
1593,33666,0.0247186,2.51895
1602,33894,0.0247186,2.5417
1611,34169,0.0247147,2.56914
1620,34393,0.024698,2.5916
1629,34619,0.0246823,2.61426
1638,34842,0.0246823,2.63643
1647,35121,0.0246696,2.66436
1656,35361,0.0246372,2.68838
1665,35584,0.0246333,2.71074
1674,35811,0.0246529,2.7334
1683,36036,0.0246411,2.75596
1692,36317,0.0246098,2.78398
1701,36545,0.0245911,2.80674
1710,36770,0.0245892,2.8292
1719,37004,0.0245813,2.85273
1728,37236,0.024596,2.87588
1737,37524,0.0245852,2.90469
1746,37756,0.0245764,2.92783
1755,37984,0.0245911,2.95068
1764,38253,0.0245686,2.97764
1773,38531,0.024549,3.00537
1782,38784,0.0245254,3.03066
1791,39018,0.0245117,3.054
1800,39254,0.0245303,3.07764
1809,39487,0.0245803,3.10088
1818,39784,0.0245529,3.13066
1827,40022,0.0245441,3.15439
1836,40255,0.0245421,3.17773
1845,40488,0.0245303,3.20107
1854,40773,0.0245519,3.22959
1863,41008,0.0245382,3.253125
1872,41234,0.024549,3.27568
1881,41468,0.0245382,3.29912
1890,41764,0.0245264,3.32861
1899,41995,0.0245078,3.35186
1908,42229,0.0245244,3.3752
1917,42468,0.0245117,3.39902
1926,42706,0.0244931,3.42285
1935,43001,0.0244921,3.45244
1944,43238,0.024497,3.47607
1953,43476,0.0244803,3.4998
1962,43718,0.024444,3.52412
1971,43958,0.0244421,3.54805
1980,44255,0.0244421,3.57773
1989,44498,0.0244146,3.60205
1998,44735,0.0244195,3.62578
2007,44979,0.0244244,3.6501
2016,45274,0.0244058,3.67959
2025,45514,0.0243999,3.70371
2034,45754,0.0244058,3.72764
2043,45988,0.0243695,3.75107
2052,46227,0.0243362,3.7749
2061,46524,0.0243263,3.80469
2070,46766,0.0243313,3.82881
2079,47004,0.0243509,3.85264
2088,47248,0.024345,3.87705
2097,47559,0.0243371,3.9082
2106,47814,0.0243195,3.93359
2115,48057,0.0243195,3.95801
2124,48297,0.0243107,3.98203
2133,48542,0.0243038,4.00645
2142,48834,0.0242606,4.03564
2151,49076,0.0242714,4.05986
2160,49306,0.0242803,4.08291
2169,49549,0.0242528,4.10713
2178,49837,0.0242312,4.13604
2187,50085,0.0242538,4.16074
2196,50377,0.0242381,4.18994
2205,50625,0.0242548,4.21465
2214,50873,0.0242459,4.23945
2223,51181,0.0242116,4.27031
2232,51421,0.0242381,4.29443
2241,51680,0.0242479,4.32021
2250,51928,0.0242469,4.34502
2259,52231,0.0242538,4.37529
2268,52477,0.0242214,4.3999
2277,52721,0.0242175,4.42441
2286,52965,0.0242224,4.44873
2295,53207,0.0242146,4.47295
2304,53510,0.0242381,4.50322
2313,53755,0.0242342,4.52773
2322,54005,0.0242204,4.55273
2331,54260,0.0241998,4.57822
2340,54571,0.0242047,4.60928
2349,54826,0.0242214,4.63486
2358,55074,0.0241861,4.65957
2367,55326,0.0241949,4.68486
2376,55575,0.0242018,4.70977
2385,55890,0.0241959,4.74121
2394,56144,0.0241812,4.7666
2403,56392,0.0241694,4.79141
2412,56646,0.0241724,4.8168
2421,56955,0.0241734,4.84775
2430,57202,0.0241763,4.87246
2439,57459,0.0241753,4.89814
2448,57715,0.0241685,4.92373
2457,57984,0.0241714,4.95059
2466,58297,0.0242038,4.98184
2473,58588,0.0241881,5.0